workerId,ITEM_ID,ITEM_FUNCTION,ITEM_SUBGROUP,case,class,verb,comment,ANSWER,ANSWER_POSITION,OPTION_0_ITEM,OPTION_1_ITEM,OPTION_0_KEY_CONDITION,OPTION_1_KEY_CONDITION,date_time_begin,date_time_end,rt,trial_index
449,f32,calibration,unrelated,,,,v2,accept,above,"Jonas hat mitbekommen, dass gestern ein Lehrer verprügelt wurde.","Jonas hat mitbekommen, dass gestern wurde ein Lehrer verprügelt.",accept,*,17:46:25,17:46:35,10042,0
449,f29,calibration,related,,,,refl_ES,accept,above,"Julia hat erzählt, dass sich ihr Bruder für sein Verhalten geschämt hat.","Julia hat erzählt, dass ihr Bruder für sein Verhalten sich geschämt hat.",accept,?,17:46:35,17:46:47,12464,1
449,f28,calibration,related,,,,EO_perf_aux,accept,below,"Leon hat erwähnt, dass seiner Mutter die Entlassung zugesetzt hat.","Leon hat erwähnt, dass seiner Mutter die Entlassung zugesetzt ist.",accept,*,17:46:47,17:46:58,11170,2
449,f27,calibration,related,,,,EO_perf_aux,accept,below,"Marek hat berichtet, dass der Film einen Kritiker gelangweilt hat.","Marek hat berichtet, dass der Film einen Kritiker gelangweilt ist.",accept,*,17:46:58,17:47:08,9654,3
449,f30,calibration,related,,,,def,accept,below,"Kira hat gesagt, dass den Stadtwerken ein hoher Betrag überwiesen wurde.","Kira hat gesagt, dass ein hoher Betrag den Stadtwerken überwiesen wurde.",accept,?,17:47:08,17:47:26,18299,4
449,f31,calibration,unrelated,,,,def,accept,below,"Sarah hat gehört, dass dem Nachbarn ein Paket gegeben wurde.","Sarah hat gehört, dass ein Paket dem Nachbarn gegeben wurde.",accept,?,17:47:26,17:47:34,7332,5
449,f66,filler,unrelated,,,,Action_perf_aux,accept,above,"Nele hat gesagt, dass ihre Tochter das Loch gebohrt hat.","Nele hat gesagt, dass ihre Tochter das Loch gebohrt ist.",accept,*,17:47:34,17:47:42,8567,6
449,f36,filler,related,,,,BenO_acc,SubjObj,below,"Marek hat berichtet, dass ein Schneesturm einen Springer behindert hat.","Marek hat berichtet, dass einen Springer ein Schneesturm behindert hat.",SubjObj,ObjSubj,17:47:42,17:47:52,9827,7
449,f54,filler,related,,,,BenO_acc,ObjSubj,below,"Anna hat gesagt, dass ein Sicherheitsgurt einen Autofahrer geschützt hat.","Anna hat gesagt, dass einen Autofahrer ein Sicherheitsgurt geschützt hat.",SubjObj,ObjSubj,17:47:52,17:48:03,11266,8
449,f58,filler,unrelated,,,,pers_pron,accept_SO,below,"Jonas hat erzählt, dass er es vorbereitet hat.","Jonas hat erzählt, dass es er vorbereitet hat.",accept_SO,*_OS,17:48:03,17:48:10,6866,9
449,f35,filler,related,,,,BenO_acc,SubjObj,below,"Leon hat gesagt, dass ein Bilanzskandal einen Aktionär geschädigt hat.","Leon hat gesagt, dass einen Aktionär ein Bilanzskandal geschädigt hat.",SubjObj,ObjSubj,17:48:10,17:48:22,11551,10
449,f63,filler,unrelated,,,,def,accept,below,"Anna hat gehört, dass dem Mann ein Bild gezeigt wurde.","Anna hat gehört, dass ein Bild dem Mann gezeigt wurde.",accept,?,17:48:22,17:48:28,6783,11
449,t07,test,,acc,EO,nerven,test,SubjObj,below,"Nele hat berichtet, dass eine Karikatur einen Politiker genervt hat.","Nele hat berichtet, dass einen Politiker eine Karikatur genervt hat.",SubjObj,ObjSubj,17:48:28,17:48:36,7943,12
449,f06,attention,unrelated,,,,article_count,accept,below,"Maurice hat gesagt, dass der Mond aufgegangen ist.","Maurice hat gesagt, dass Mond aufgegangen ist.",accept,*,17:48:36,17:48:41,4770,13
449,f40,filler,related,,,,BenO_dat,SubjObj,below,"Ali hat gesagt, dass ein Grenzwall einem König gedient hat.","Ali hat gesagt, dass einem König ein Grenzwall gedient hat.",SubjObj,ObjSubj,17:48:41,17:48:48,7141,14
449,t01,test,,acc,EO,interessieren,test,ObjSubj,below,"Jonas hat erzählt, dass ein Piratenfilm einen Besucher interessiert hat.","Jonas hat erzählt, dass einen Besucher ein Piratenfilm interessiert hat.",SubjObj,ObjSubj,17:48:48,17:49:01,12840,15
449,f02,attention,related,,,,EO_perf_aux,accept,below,"Eva hat gehört, dass dieser Kommentar einer Mitspielerin zugesetzt hat.","Eva hat gehört, dass dieser Kommentar einer Mitspielerin zugesetzt ist.",accept,*,17:49:01,17:49:11,10329,16
449,t10,test,,dat,EO,behagen,test,ObjSubj,below,"David hat gehört, dass eine Aufgabe einem Kletterer behagt hat.","David hat gehört, dass einem Kletterer eine Aufgabe behagt hat.",SubjObj,ObjSubj,17:49:11,17:49:19,7156,17
449,f44,filler,related,,,,Unacc_dat,ObjSubj,above,"Leon hat berichtet, dass ein Tank einem Nachbarn übergelaufen ist.","Leon hat berichtet, dass einem Nachbarn ein Tank übergelaufen ist.",SubjObj,ObjSubj,17:49:19,17:49:28,9892,18
449,t09,test,,dat,EO,auffallen,test,ObjSubj,above,"Julia hat erzählt, dass eine Entwicklung einem Besucher aufgefallen ist.","Julia hat erzählt, dass einem Besucher eine Entwicklung aufgefallen ist.",SubjObj,ObjSubj,17:49:28,17:49:42,13553,19
449,f43,filler,related,,,,Unacc_dat,ObjSubj,below,"Anna hat gesagt, dass ein Joghurt einem Mitbewohner verschimmelt ist.","Anna hat gesagt, dass einem Mitbewohner ein Joghurt verschimmelt ist.",SubjObj,ObjSubj,17:49:42,17:49:55,13275,20
449,f50,filler,related,,,,BenO_acc,SubjObj,above,"Sarah hat gehört, dass ein Fehler einen Turner begünstigt hat.","Sarah hat gehört, dass einen Turner ein Fehler begünstigt hat.",SubjObj,ObjSubj,17:49:55,17:50:16,20795,21
449,f62,filler,related,,,,BenO_dat,ObjSubj,above,"Sarah hat gehört, dass eine App einem Nutzer assistiert hat.","Sarah hat gehört, dass einem Nutzer eine App assistiert hat.",SubjObj,ObjSubj,17:50:16,17:50:50,33819,22
449,t13,test,,dat,EO,imponieren,test,ObjSubj,above,"Selma hat erzählt, dass ein Angebot einem Kunden imponiert hat.","Selma hat erzählt, dass einem Kunden ein Angebot imponiert hat.",SubjObj,ObjSubj,17:50:50,18:08:33,1062641,23
449,f47,filler,related,,,,refl_ES,accept,above,"Thorsten hat berichtet, dass sich die Kinder für französischen Rap interessieren.","Thorsten hat berichtet, dass die Kinder für französischen Rap sich interessieren.",accept,?,18:08:33,18:08:40,7384,24
449,f55,filler,related,,,,BenO_dat,SubjObj,below,"Nele hat berichtet, dass ein Denkmal einem Staatsmann gegolten hat.","Nele hat berichtet, dass einem Staatsmann ein Denkmal gegolten hat.",SubjObj,ObjSubj,18:08:40,18:08:49,8912,25
449,f56,filler,unrelated,,,,weather_es,accept,below,"Nadja hat gesagt, dass es gestern gehagelt hat.","Nadja hat gesagt, dass gestern gehagelt hat.",accept,*,18:08:49,18:08:55,5755,26
449,t08,test,,acc,EO,verärgern,test,ObjSubj,above,"Anna hat gesagt, dass ein Verfahren einen Richter verärgert hat.","Anna hat gesagt, dass einen Richter ein Verfahren verärgert hat.",SubjObj,ObjSubj,18:08:55,18:09:04,9088,27
449,f59,filler,unrelated,,,,pers_pron,accept_SO,above,"Ali hat erzählt, dass er ihnen ein Eis spendiert hat.","Ali hat erzählt, dass ihnen er ein Eis spendiert hat.",accept_SO,*_OS,18:09:04,18:09:11,7778,28
449,f39,filler,related,,,,BenO_dat,SubjObj,below,"Leon hat berichtet, dass eine Erkenntnis einem Bekannten genützt hat.","Leon hat berichtet, dass einem Bekannten eine Erkenntnis genützt hat.",SubjObj,ObjSubj,18:09:11,18:09:18,6605,29
449,f23,control,unrelated,,,,v2,accept,above,"Kira hat gemeint, dass ein Mitschüler gestern geschlafen hat.","Kira hat gemeint, dass ein Mitschüler hat gestern geschlafen.",accept,*,18:09:18,18:09:26,7413,30
449,f37,filler,related,,,,BenO_dat,SubjObj,above,"Julia hat erzählt, dass ein Medikament einem Patienten geholfen hat.","Julia hat erzählt, dass einem Patienten ein Medikament geholfen hat.",SubjObj,ObjSubj,18:09:26,18:09:31,5664,31
449,f15,control,related,,,,EO_art,accept,above,"Maryam hat gesagt, dass der Mantel die Kollegin begeistert hat.","Maryam hat gesagt, dass der Mantel den Kollegin begeistert hat.",accept,*,18:09:31,18:10:00,28587,32
449,f60,filler,unrelated,,,,pers_pron,accept_SO,above,"Kira hat gehört, dass sie es ihm endlich zugeschickt haben.","Kira hat gehört, dass es sie ihm endlich zugeschickt haben.",accept_SO,*_OS,18:10:00,18:10:21,21092,33
449,f16,control,related,,,,EO_art,accept,below,"Kira hat gehört, dass die Route eine Bergsteigerin frustriert hat.","Kira hat gehört, dass die Route einem Bergsteigerin frustriert hat.",accept,*,18:10:21,18:10:28,7428,34
449,f61,filler,unrelated,,,,pers_pron,accept_SO,below,"Selma hat gesehen, dass er es in den Briefkasten geworfen hat.","Selma hat gesehen, dass es er in den Briefkasten geworfen hat.",accept_SO,*_OS,18:10:28,18:10:36,7790,35
449,f26,control,unrelated,,,,pers_pron,accept,below,"Eva hat erzählt, dass sie ihn gestern getroffen hat.","Eva hat erzählt, dass ihn sie gestern getroffen hat.",accept,*,18:10:36,18:10:43,7062,36
449,f64,filler,unrelated,,,,def,accept,above,"Leon hat erzählt, dass dem Hausmeister eine Torte geschenkt wurde.","Leon hat erzählt, dass eine Torte dem Hausmeister geschenkt wurde.",accept,?,18:10:43,18:10:49,5485,37
449,f14,control,related,,,,EO_cong,*,below,"Marek hat gehört, dass ein Kompliment einen Mitspieler erheitert hat.","Marek hat gehört, dass ein Kompliment einen Mitspieler erheitert haben.",accept,*,18:10:49,18:10:55,6150,38
449,f07,attention,unrelated,,,,article_count,accept,below,"Julia hat angedeutet, dass ihr Chef einen älteren Herrn übers Ohr gehauen hat.","Julia hat angedeutet, dass ihr Chef älteren Herrn übers Ohr gehauen hat.",accept,*,18:10:55,18:11:11,16223,39
449,f22,control,unrelated,,,,v2,accept,below,"Maurice hat behauptet, dass er einem Schauspieler ähnelt.","Maurice hat behauptet, dass er ähnelt einem Schauspieler.",accept,*,18:11:11,18:11:19,7888,40
449,f08,attention,unrelated,,,,weather_es,accept,below,"Marek hat erzählt, dass es in Österreich geschneit hat.","Marek hat erzählt, dass in Österreich geschneit hat.",accept,*,18:11:19,18:11:23,4074,41
449,f11,control,related,,,,EO_prep,accept,below,"Nele hat berichtet, dass sich die Chefin über das Geschenk gefreut hat.","Nele hat berichtet, dass sich die Chefin um das Geschenk gefreut hat.",accept,*,18:11:23,18:11:30,6939,42
449,f52,filler,related,,,,BenO_dat,SubjObj,below,"Julia hat erzählt, dass eine Niederlage einem Politiker angehaftet hat.","Julia hat erzählt, dass einem Politiker eine Niederlage angehaftet hat.",SubjObj,ObjSubj,18:11:30,18:11:44,13776,43
449,t03,test,,acc,EO,ärgern,test,ObjSubj,below,"Leon hat gesagt, dass ein Artikel einen Leser geärgert hat.","Leon hat gesagt, dass einen Leser ein Artikel geärgert hat.",SubjObj,ObjSubj,18:11:44,18:11:51,7634,44
449,f41,filler,related,,,,Unacc_dat,ObjSubj,below,"David hat erzählt, dass ein Pullover einem Freund eingelaufen ist.","David hat erzählt, dass einem Freund ein Pullover eingelaufen ist.",SubjObj,ObjSubj,18:11:51,18:11:58,6623,45
449,t16,test,,dat,EO,widerstreben,test,ObjSubj,below,"Anna hat gesagt, dass ein Ritual einem Priester widerstrebt hat.","Anna hat gesagt, dass einem Priester ein Ritual widerstrebt hat.",SubjObj,ObjSubj,18:11:58,18:12:04,6271,46
449,f09,attention,unrelated,,,,weather_es,accept,above,"Anna hat gehört, dass es in der Atacama-Wüste geregnet hat.","Anna hat gehört, dass in der Atacama-Wüste geregnet hat.",accept,*,18:12:04,18:12:11,7247,47
449,f24,control,unrelated,,,,pers_pron,accept,above,"Sarah hat erzählt, dass er ihr ein Handtuch gegeben hat.","Sarah hat erzählt, dass ihr er ein Handtuch gegeben hat.",accept,*,18:12:11,18:12:21,9145,48
449,f42,filler,related,,,,Unacc_dat,ObjSubj,below,"Sarah hat gehört, dass eine Zutat einem Bäcker ausgegangen ist.","Sarah hat gehört, dass einem Bäcker eine Zutat ausgegangen ist.",SubjObj,ObjSubj,18:12:21,18:12:26,5674,49
449,f25,control,unrelated,,,,pers_pron,accept,below,"Simon hat gehört, dass sie ihm etwas zugerufen hat.","Simon hat gehört, dass ihm sie etwas zugerufen hat.",accept,*,18:12:26,18:12:32,5665,50
449,f05,attention,related,,,,EO_perf_aux,accept,above,"Nora hat mitbekommen, dass der Fleck einen Bekannten gestört hat.","Nora hat mitbekommen, dass der Fleck einen Bekannten gestört ist.",accept,*,18:12:32,18:12:41,9043,51
449,f18,control,related,,,,EO_art,accept,above,"Ali hat berichtet, dass diese Enthüllung einen Journalisten schockiert hat.","Ali hat berichtet, dass diese Enthüllung einer Journalisten schockiert hat.",accept,*,18:12:41,18:12:46,5231,52
449,f57,filler,unrelated,,,,pers_pron,accept_SO,above,"David hat erzählt, dass er es gehört hat.","David hat erzählt, dass es er gehört hat.",accept_SO,*_OS,18:12:46,18:12:57,11182,53
449,t02,test,,acc,EO,anwidern,test,SubjObj,below,"David hat gehört, dass ein Spektakel einen Anwalt angewidert hat.","David hat gehört, dass einen Anwalt ein Spektakel angewidert hat.",SubjObj,ObjSubj,18:12:57,18:13:04,7070,54
449,f04,attention,related,,,,EO_perf_aux,accept,above,"Tina hat erzählt, dass eine Beleidigung einem Künstler leidgetan hat.","Tina hat erzählt, dass eine Beleidigung einem Künstler leidgetan ist.",accept,*,18:13:04,18:13:14,9778,55
449,t15,test,,dat,EO,nahegehen,test,SubjObj,above,"Nele hat berichtet, dass ein Missgeschick einem Kollegen nahegegangen ist.","Nele hat berichtet, dass einem Kollegen ein Missgeschick nahegegangen ist.",SubjObj,ObjSubj,18:13:14,18:13:30,15802,56
449,f65,filler,unrelated,,,,def,accept,above,"Julia hat gesagt, dass dem Kind ein Spielzeug gegeben wurde.","Julia hat gesagt, dass ein Spielzeug dem Kind gegeben wurde.",accept,?,18:13:30,18:13:39,9280,57
449,f13,control,related,,,,EO_cong,accept,below,"Ali hat mitbekommen, dass die Behandlung den Patienten aufgewühlt hat.","Ali hat mitbekommen, dass die Behandlung den Patienten aufgewühlt haben.",accept,*,18:13:39,18:13:53,13211,58
449,f38,filler,related,,,,BenO_dat,ObjSubj,below,"David hat gehört, dass eine Affäre einem Politiker geschadet hat.","David hat gehört, dass einem Politiker eine Affäre geschadet hat.",SubjObj,ObjSubj,18:13:53,18:13:59,6724,59
449,t11,test,,dat,EO,einleuchten,test,SubjObj,below,"Leon hat berichtet, dass ein Vorgehen einem Nachbarn eingeleuchtet hat.","Leon hat berichtet, dass einem Nachbarn ein Vorgehen eingeleuchtet hat.",SubjObj,ObjSubj,18:13:59,18:14:06,6931,60
449,f33,filler,related,,,,BenO_acc,SubjObj,below,"Jonas hat erzählt, dass ein Zwischenfall einen Beamten beeinträchtigt hat.","Jonas hat erzählt, dass einen Beamten ein Zwischenfall beeinträchtigt hat.",SubjObj,ObjSubj,18:14:06,18:14:12,5837,61
449,t14,test,,dat,EO,missfallen,test,SubjObj,above,"Sarah hat gehört, dass eine Aussage einem General missfallen hat.","Sarah hat gehört, dass einem General eine Aussage missfallen hat.",SubjObj,ObjSubj,18:14:12,18:14:21,8553,62
449,f53,filler,related,,,,BenO_acc,SubjObj,above,"Nele hat berichtet, dass ein Zufall einen Mann gerettet hat.","Nele hat berichtet, dass einen Mann ein Zufall gerettet hat.",SubjObj,ObjSubj,18:14:21,18:14:27,6432,63
449,f19,control,unrelated,,,,article_count,accept,above,"Nora hat gehört, dass sich ihr Chef in eine Beraterin verliebt hat.","Nora hat gehört, dass sich ihr Chef in Beraterin verliebt hat.",accept,*,18:14:27,18:14:36,8826,64
449,f51,filler,related,,,,BenO_dat,ObjSubj,below,"Selma hat erzählt, dass eine Haftstrafe einem Erpresser gedroht hat.","Selma hat erzählt, dass einem Erpresser eine Haftstrafe gedroht hat.",SubjObj,ObjSubj,18:14:36,18:14:43,7303,65
449,t04,test,,acc,EO,verblüffen,test,ObjSubj,below,"Marek hat berichtet, dass ein Resultat einen Forscher verblüfft hat.","Marek hat berichtet, dass einen Forscher ein Resultat verblüfft hat.",SubjObj,ObjSubj,18:14:43,18:15:10,26540,66
449,f03,attention,related,,,,EO_perf_aux,accept,above,"Ali hat mitbekommen, dass die Verletzung einen Mitspieler schockiert hat.","Ali hat mitbekommen, dass die Verletzung einen Mitspieler schockiert ist.",accept,*,18:15:10,18:15:20,9998,67
449,t05,test,,acc,EO,bezaubern,test,SubjObj,above,"Eva hat erzählt, dass ein Holzspielzeug einen Jungen bezaubert hat.","Eva hat erzählt, dass einen Jungen ein Holzspielzeug bezaubert hat.",SubjObj,ObjSubj,18:15:20,18:15:27,7268,68
449,f45,filler,related,,,,refl_ES,accept,below,"Nadja hat gehört, dass sich ihre Mutter über das Geschenk gefreut hat.","Nadja hat gehört, dass ihre Mutter über das Geschenk sich gefreut hat.",accept,?,18:15:27,18:15:33,6162,69
449,f21,control,unrelated,,,,v2,accept,above,"Maryam hat erzählt, dass sie einem Bedürftigen Geld zukommen lässt.","Maryam hat erzählt, dass sie lässt einem Bedürftigen Geld zukommen.",accept,*,18:15:33,18:15:41,7942,70
449,f46,filler,related,,,,refl_ES,accept,above,"Anna hat erzählt, dass sich eine Geschäftspartnerin über die hiesigen Gepflogenheiten gewundert hat.","Anna hat erzählt, dass eine Geschäftspartnerin über die hiesigen Gepflogenheiten sich gewundert hat.",accept,?,18:15:41,18:16:05,23837,71
449,t12,test,,dat,EO,gefallen,test,ObjSubj,below,"Ali hat gesagt, dass ein Selbstporträt einem Maler gefallen hat.","Ali hat gesagt, dass einem Maler ein Selbstporträt gefallen hat.",SubjObj,ObjSubj,18:16:05,18:16:12,6879,72
449,f48,filler,related,,,,refl_ES,accept,above,"David hat mitbekommen, dass sich der Betreuer wieder erschreckt hat.","David hat mitbekommen, dass der Betreuer wieder sich erschreckt hat.",accept,?,18:16:12,18:16:22,9742,73
449,f17,control,related,,,,EO_art,accept,below,"Leon hat erzählt, dass das bekannte Problem den Kanzlerkandidaten bedrückt hat.","Leon hat erzählt, dass die bekannte Problem den Kanzlerkandidaten bedrückt hat.",accept,*,18:16:22,18:16:36,14475,74
449,f49,filler,related,,,,BenO_acc,SubjObj,below,"Eva hat erzählt, dass ein Warnstreik einen Bürger eingeschränkt hat.","Eva hat erzählt, dass einen Bürger ein Warnstreik eingeschränkt hat.",SubjObj,ObjSubj,18:16:36,18:16:44,8385,75
449,t06,test,,acc,EO,ängstigen,test,ObjSubj,below,"Sarah hat gehört, dass eine Livesendung einen Zuschauer geängstigt hat.","Sarah hat gehört, dass einen Zuschauer eine Livesendung geängstigt hat.",SubjObj,ObjSubj,18:16:44,18:16:55,10592,76
449,f01,attention,related,,,,EO_perf_aux,accept,above,"Sarah hat erzählt, dass das Kompliment einem Studenten geschmeichelt hat.","Sarah hat erzählt, dass das Kompliment einem Studenten geschmeichelt ist.",accept,*,18:16:55,18:17:00,5461,77
449,f20,control,unrelated,,,,article_count,accept,below,"Marek hat mitbekommen, dass sich eine Kollegin abfällig über eine Verwandte geäußert hat.","Marek hat mitbekommen, dass sich Kollegin abfällig über eine Verwandte geäußert hat.",accept,*,18:17:00,18:17:11,10525,78
449,f10,attention,unrelated,,,,weather_es,accept,above,"Maurice hat gesagt, dass es in Paderborn gestern gestürmt hat.","Maurice hat gesagt, dass in Paderborn gestern gestürmt hat.",accept,*,18:17:11,18:17:17,6136,79
449,f12,control,related,,,,EO_prep,accept,below,"David hat erzählt, dass sich der Trainer über sein Missgeschick amüsiert hat.","David hat erzählt, dass sich der Trainer um sein Missgeschick amüsiert hat.",accept,*,18:17:17,18:17:27,10135,80
449,f34,filler,related,,,,BenO_acc,SubjObj,below,"David hat gehört, dass ein Bremsassistent einen Autofahrer unterstützt hat.","David hat gehört, dass einen Autofahrer ein Bremsassistent unterstützt hat.",SubjObj,ObjSubj,18:17:27,18:17:39,12175,81
447,f27,calibration,related,,,,EO_perf_aux,accept,above,"Marek hat berichtet, dass der Film einen Kritiker gelangweilt hat.","Marek hat berichtet, dass der Film einen Kritiker gelangweilt ist.",accept,*,17:31:21,17:31:41,20102,0
447,f31,calibration,unrelated,,,,def,accept,below,"Sarah hat gehört, dass dem Nachbarn ein Paket gegeben wurde.","Sarah hat gehört, dass ein Paket dem Nachbarn gegeben wurde.",accept,?,17:31:41,17:31:50,9394,1
447,f28,calibration,related,,,,EO_perf_aux,accept,below,"Leon hat erwähnt, dass seiner Mutter die Entlassung zugesetzt hat.","Leon hat erwähnt, dass seiner Mutter die Entlassung zugesetzt ist.",accept,*,17:31:50,17:32:02,11460,2
447,f32,calibration,unrelated,,,,v2,accept,above,"Jonas hat mitbekommen, dass gestern ein Lehrer verprügelt wurde.","Jonas hat mitbekommen, dass gestern wurde ein Lehrer verprügelt.",accept,*,17:32:02,17:32:09,6807,3
447,f30,calibration,related,,,,def,accept,above,"Kira hat gesagt, dass den Stadtwerken ein hoher Betrag überwiesen wurde.","Kira hat gesagt, dass ein hoher Betrag den Stadtwerken überwiesen wurde.",accept,?,17:32:09,17:32:23,14784,4
447,f29,calibration,related,,,,refl_ES,accept,below,"Julia hat erzählt, dass sich ihr Bruder für sein Verhalten geschämt hat.","Julia hat erzählt, dass ihr Bruder für sein Verhalten sich geschämt hat.",accept,?,17:32:23,17:32:30,6140,5
447,f49,filler,related,,,,BenO_acc,SubjObj,above,"Eva hat erzählt, dass ein Warnstreik einen Bürger eingeschränkt hat.","Eva hat erzählt, dass einen Bürger ein Warnstreik eingeschränkt hat.",SubjObj,ObjSubj,17:32:30,17:32:39,9768,6
447,f02,attention,related,,,,EO_perf_aux,accept,above,"Eva hat gehört, dass dieser Kommentar einer Mitspielerin zugesetzt hat.","Eva hat gehört, dass dieser Kommentar einer Mitspielerin zugesetzt ist.",accept,*,17:32:39,17:32:49,9581,7
447,f07,attention,unrelated,,,,article_count,accept,above,"Julia hat angedeutet, dass ihr Chef einen älteren Herrn übers Ohr gehauen hat.","Julia hat angedeutet, dass ihr Chef älteren Herrn übers Ohr gehauen hat.",accept,*,17:32:49,17:32:59,10123,8
447,f58,filler,unrelated,,,,pers_pron,accept_SO,below,"Jonas hat erzählt, dass er es vorbereitet hat.","Jonas hat erzählt, dass es er vorbereitet hat.",accept_SO,*_OS,17:32:59,17:33:07,7796,9
447,t13,test,,dat,EO,imponieren,test,SubjObj,above,"Selma hat erzählt, dass ein Angebot einem Kunden imponiert hat.","Selma hat erzählt, dass einem Kunden ein Angebot imponiert hat.",SubjObj,ObjSubj,17:33:07,17:33:16,9391,10
447,f64,filler,unrelated,,,,def,accept,above,"Leon hat erzählt, dass dem Hausmeister eine Torte geschenkt wurde.","Leon hat erzählt, dass eine Torte dem Hausmeister geschenkt wurde.",accept,?,17:33:16,17:33:25,9129,11
447,f48,filler,related,,,,refl_ES,accept,below,"David hat mitbekommen, dass sich der Betreuer wieder erschreckt hat.","David hat mitbekommen, dass der Betreuer wieder sich erschreckt hat.",accept,?,17:33:25,17:33:34,8592,12
447,t06,test,,acc,EO,ängstigen,test,SubjObj,below,"Sarah hat gehört, dass eine Livesendung einen Zuschauer geängstigt hat.","Sarah hat gehört, dass einen Zuschauer eine Livesendung geängstigt hat.",SubjObj,ObjSubj,17:33:34,17:33:41,7288,13
447,f50,filler,related,,,,BenO_acc,ObjSubj,above,"Sarah hat gehört, dass ein Fehler einen Turner begünstigt hat.","Sarah hat gehört, dass einen Turner ein Fehler begünstigt hat.",SubjObj,ObjSubj,17:33:41,17:33:53,12026,14
447,f41,filler,related,,,,Unacc_dat,SubjObj,below,"David hat erzählt, dass ein Pullover einem Freund eingelaufen ist.","David hat erzählt, dass einem Freund ein Pullover eingelaufen ist.",SubjObj,ObjSubj,17:33:53,17:34:03,9702,15
447,f65,filler,unrelated,,,,def,accept,above,"Julia hat gesagt, dass dem Kind ein Spielzeug gegeben wurde.","Julia hat gesagt, dass ein Spielzeug dem Kind gegeben wurde.",accept,?,17:34:03,17:34:15,12000,16
447,f52,filler,related,,,,BenO_dat,ObjSubj,below,"Julia hat erzählt, dass eine Niederlage einem Politiker angehaftet hat.","Julia hat erzählt, dass einem Politiker eine Niederlage angehaftet hat.",SubjObj,ObjSubj,17:34:15,17:34:26,10687,17
447,f44,filler,related,,,,Unacc_dat,ObjSubj,above,"Leon hat berichtet, dass ein Tank einem Nachbarn übergelaufen ist.","Leon hat berichtet, dass einem Nachbarn ein Tank übergelaufen ist.",SubjObj,ObjSubj,17:34:26,17:34:35,8981,18
447,t04,test,,acc,EO,verblüffen,test,SubjObj,above,"Marek hat berichtet, dass ein Resultat einen Forscher verblüfft hat.","Marek hat berichtet, dass einen Forscher ein Resultat verblüfft hat.",SubjObj,ObjSubj,17:34:35,17:34:45,10566,19
447,f54,filler,related,,,,BenO_acc,SubjObj,above,"Anna hat gesagt, dass ein Sicherheitsgurt einen Autofahrer geschützt hat.","Anna hat gesagt, dass einen Autofahrer ein Sicherheitsgurt geschützt hat.",SubjObj,ObjSubj,17:34:45,17:34:52,6900,20
447,f57,filler,unrelated,,,,pers_pron,accept_SO,above,"David hat erzählt, dass er es gehört hat.","David hat erzählt, dass es er gehört hat.",accept_SO,*_OS,17:34:52,17:34:58,5618,21
447,f38,filler,related,,,,BenO_dat,SubjObj,above,"David hat gehört, dass eine Affäre einem Politiker geschadet hat.","David hat gehört, dass einem Politiker eine Affäre geschadet hat.",SubjObj,ObjSubj,17:34:58,17:35:05,7222,22
447,t09,test,,dat,EO,auffallen,test,ObjSubj,below,"Julia hat erzählt, dass eine Entwicklung einem Besucher aufgefallen ist.","Julia hat erzählt, dass einem Besucher eine Entwicklung aufgefallen ist.",SubjObj,ObjSubj,17:35:05,17:35:13,8468,23
447,f43,filler,related,,,,Unacc_dat,ObjSubj,above,"Anna hat gesagt, dass ein Joghurt einem Mitbewohner verschimmelt ist.","Anna hat gesagt, dass einem Mitbewohner ein Joghurt verschimmelt ist.",SubjObj,ObjSubj,17:35:13,17:35:23,9551,24
447,t03,test,,acc,EO,ärgern,test,SubjObj,above,"Leon hat gesagt, dass ein Artikel einen Leser geärgert hat.","Leon hat gesagt, dass einen Leser ein Artikel geärgert hat.",SubjObj,ObjSubj,17:35:23,17:35:46,23443,25
447,f66,filler,unrelated,,,,Action_perf_aux,accept,above,"Nele hat gesagt, dass ihre Tochter das Loch gebohrt hat.","Nele hat gesagt, dass ihre Tochter das Loch gebohrt ist.",accept,*,17:35:46,17:35:55,8546,26
447,t07,test,,acc,EO,nerven,test,SubjObj,below,"Nele hat berichtet, dass eine Karikatur einen Politiker genervt hat.","Nele hat berichtet, dass einen Politiker eine Karikatur genervt hat.",SubjObj,ObjSubj,17:35:55,17:36:03,8303,27
447,f35,filler,related,,,,BenO_acc,SubjObj,below,"Leon hat gesagt, dass ein Bilanzskandal einen Aktionär geschädigt hat.","Leon hat gesagt, dass einen Aktionär ein Bilanzskandal geschädigt hat.",SubjObj,ObjSubj,17:36:03,17:36:11,7943,28
447,f15,control,related,,,,EO_art,accept,below,"Maryam hat gesagt, dass der Mantel die Kollegin begeistert hat.","Maryam hat gesagt, dass der Mantel den Kollegin begeistert hat.",accept,*,17:36:11,17:36:25,13663,29
447,f62,filler,related,,,,BenO_dat,ObjSubj,below,"Sarah hat gehört, dass eine App einem Nutzer assistiert hat.","Sarah hat gehört, dass einem Nutzer eine App assistiert hat.",SubjObj,ObjSubj,17:36:25,17:36:34,9244,30
447,t14,test,,dat,EO,missfallen,test,ObjSubj,below,"Sarah hat gehört, dass eine Aussage einem General missfallen hat.","Sarah hat gehört, dass einem General eine Aussage missfallen hat.",SubjObj,ObjSubj,17:36:34,17:36:41,6877,31
447,f55,filler,related,,,,BenO_dat,SubjObj,below,"Nele hat berichtet, dass ein Denkmal einem Staatsmann gegolten hat.","Nele hat berichtet, dass einem Staatsmann ein Denkmal gegolten hat.",SubjObj,ObjSubj,17:36:41,17:36:49,7792,32
447,t02,test,,acc,EO,anwidern,test,SubjObj,below,"David hat gehört, dass ein Spektakel einen Anwalt angewidert hat.","David hat gehört, dass einen Anwalt ein Spektakel angewidert hat.",SubjObj,ObjSubj,17:36:49,17:37:05,16143,33
447,f46,filler,related,,,,refl_ES,accept,below,"Anna hat erzählt, dass sich eine Geschäftspartnerin über die hiesigen Gepflogenheiten gewundert hat.","Anna hat erzählt, dass eine Geschäftspartnerin über die hiesigen Gepflogenheiten sich gewundert hat.",accept,?,17:37:05,17:37:12,7544,34
447,t16,test,,dat,EO,widerstreben,test,ObjSubj,below,"Anna hat gesagt, dass ein Ritual einem Priester widerstrebt hat.","Anna hat gesagt, dass einem Priester ein Ritual widerstrebt hat.",SubjObj,ObjSubj,17:37:12,17:37:20,7747,35
447,f63,filler,unrelated,,,,def,accept,below,"Anna hat gehört, dass dem Mann ein Bild gezeigt wurde.","Anna hat gehört, dass ein Bild dem Mann gezeigt wurde.",accept,?,17:37:20,17:37:27,7161,36
447,f24,control,unrelated,,,,pers_pron,accept,above,"Sarah hat erzählt, dass er ihr ein Handtuch gegeben hat.","Sarah hat erzählt, dass ihr er ein Handtuch gegeben hat.",accept,*,17:37:27,17:37:38,10253,37
447,f40,filler,related,,,,BenO_dat,SubjObj,above,"Ali hat gesagt, dass ein Grenzwall einem König gedient hat.","Ali hat gesagt, dass einem König ein Grenzwall gedient hat.",SubjObj,ObjSubj,17:37:38,17:37:46,8620,38
447,t15,test,,dat,EO,nahegehen,test,ObjSubj,below,"Nele hat berichtet, dass ein Missgeschick einem Kollegen nahegegangen ist.","Nele hat berichtet, dass einem Kollegen ein Missgeschick nahegegangen ist.",SubjObj,ObjSubj,17:37:46,17:37:54,7330,39
447,f04,attention,related,,,,EO_perf_aux,accept,above,"Tina hat erzählt, dass eine Beleidigung einem Künstler leidgetan hat.","Tina hat erzählt, dass eine Beleidigung einem Künstler leidgetan ist.",accept,*,17:37:54,17:38:03,9835,40
447,t10,test,,dat,EO,behagen,test,ObjSubj,below,"David hat gehört, dass eine Aufgabe einem Kletterer behagt hat.","David hat gehört, dass einem Kletterer eine Aufgabe behagt hat.",SubjObj,ObjSubj,17:38:03,17:38:16,12594,41
447,f37,filler,related,,,,BenO_dat,ObjSubj,above,"Julia hat erzählt, dass ein Medikament einem Patienten geholfen hat.","Julia hat erzählt, dass einem Patienten ein Medikament geholfen hat.",SubjObj,ObjSubj,17:38:16,17:38:34,17890,42
447,f20,control,unrelated,,,,article_count,*,above,"Marek hat mitbekommen, dass sich eine Kollegin abfällig über eine Verwandte geäußert hat.","Marek hat mitbekommen, dass sich Kollegin abfällig über eine Verwandte geäußert hat.",accept,*,17:38:34,17:38:46,11860,43
447,f06,attention,unrelated,,,,article_count,accept,above,"Maurice hat gesagt, dass der Mond aufgegangen ist.","Maurice hat gesagt, dass Mond aufgegangen ist.",accept,*,17:38:46,17:38:54,8356,44
447,f26,control,unrelated,,,,pers_pron,accept,above,"Eva hat erzählt, dass sie ihn gestern getroffen hat.","Eva hat erzählt, dass ihn sie gestern getroffen hat.",accept,*,17:38:54,17:38:59,5269,45
447,f60,filler,unrelated,,,,pers_pron,accept_SO,above,"Kira hat gehört, dass sie es ihm endlich zugeschickt haben.","Kira hat gehört, dass es sie ihm endlich zugeschickt haben.",accept_SO,*_OS,17:38:59,17:39:06,6544,46
447,f18,control,related,,,,EO_art,accept,above,"Ali hat berichtet, dass diese Enthüllung einen Journalisten schockiert hat.","Ali hat berichtet, dass diese Enthüllung einer Journalisten schockiert hat.",accept,*,17:39:06,17:39:22,16084,47
447,f09,attention,unrelated,,,,weather_es,accept,below,"Anna hat gehört, dass es in der Atacama-Wüste geregnet hat.","Anna hat gehört, dass in der Atacama-Wüste geregnet hat.",accept,*,17:39:22,17:39:29,6892,48
447,f22,control,unrelated,,,,v2,accept,above,"Maurice hat behauptet, dass er einem Schauspieler ähnelt.","Maurice hat behauptet, dass er ähnelt einem Schauspieler.",accept,*,17:39:29,17:39:35,6512,49
447,f33,filler,related,,,,BenO_acc,SubjObj,above,"Jonas hat erzählt, dass ein Zwischenfall einen Beamten beeinträchtigt hat.","Jonas hat erzählt, dass einen Beamten ein Zwischenfall beeinträchtigt hat.",SubjObj,ObjSubj,17:39:35,17:39:45,9867,50
447,f19,control,unrelated,,,,article_count,accept,above,"Nora hat gehört, dass sich ihr Chef in eine Beraterin verliebt hat.","Nora hat gehört, dass sich ihr Chef in Beraterin verliebt hat.",accept,*,17:39:45,17:39:54,9068,51
447,f10,attention,unrelated,,,,weather_es,accept,below,"Maurice hat gesagt, dass es in Paderborn gestern gestürmt hat.","Maurice hat gesagt, dass in Paderborn gestern gestürmt hat.",accept,*,17:39:54,17:40:00,5170,52
447,f08,attention,unrelated,,,,weather_es,accept,below,"Marek hat erzählt, dass es in Österreich geschneit hat.","Marek hat erzählt, dass in Österreich geschneit hat.",accept,*,17:40:00,17:40:04,4116,53
447,f25,control,unrelated,,,,pers_pron,*,above,"Simon hat gehört, dass sie ihm etwas zugerufen hat.","Simon hat gehört, dass ihm sie etwas zugerufen hat.",accept,*,17:40:04,17:40:10,6580,54
447,f36,filler,related,,,,BenO_acc,SubjObj,above,"Marek hat berichtet, dass ein Schneesturm einen Springer behindert hat.","Marek hat berichtet, dass einen Springer ein Schneesturm behindert hat.",SubjObj,ObjSubj,17:40:10,17:40:17,6240,55
447,t11,test,,dat,EO,einleuchten,test,ObjSubj,above,"Leon hat berichtet, dass ein Vorgehen einem Nachbarn eingeleuchtet hat.","Leon hat berichtet, dass einem Nachbarn ein Vorgehen eingeleuchtet hat.",SubjObj,ObjSubj,17:40:17,17:40:27,10518,56
447,f45,filler,related,,,,refl_ES,accept,below,"Nadja hat gehört, dass sich ihre Mutter über das Geschenk gefreut hat.","Nadja hat gehört, dass ihre Mutter über das Geschenk sich gefreut hat.",accept,?,17:40:27,17:40:33,6196,57
447,f17,control,related,,,,EO_art,accept,above,"Leon hat erzählt, dass das bekannte Problem den Kanzlerkandidaten bedrückt hat.","Leon hat erzählt, dass die bekannte Problem den Kanzlerkandidaten bedrückt hat.",accept,*,17:40:33,17:40:47,13920,58
447,f61,filler,unrelated,,,,pers_pron,accept_SO,below,"Selma hat gesehen, dass er es in den Briefkasten geworfen hat.","Selma hat gesehen, dass es er in den Briefkasten geworfen hat.",accept_SO,*_OS,17:40:47,17:40:53,6107,59
447,f21,control,unrelated,,,,v2,accept,below,"Maryam hat erzählt, dass sie einem Bedürftigen Geld zukommen lässt.","Maryam hat erzählt, dass sie lässt einem Bedürftigen Geld zukommen.",accept,*,17:40:53,17:40:58,5219,60
447,f34,filler,related,,,,BenO_acc,SubjObj,above,"David hat gehört, dass ein Bremsassistent einen Autofahrer unterstützt hat.","David hat gehört, dass einen Autofahrer ein Bremsassistent unterstützt hat.",SubjObj,ObjSubj,17:40:58,17:41:07,8156,61
447,t01,test,,acc,EO,interessieren,test,ObjSubj,above,"Jonas hat erzählt, dass ein Piratenfilm einen Besucher interessiert hat.","Jonas hat erzählt, dass einen Besucher ein Piratenfilm interessiert hat.",SubjObj,ObjSubj,17:41:07,17:41:18,11855,62
447,f47,filler,related,,,,refl_ES,accept,below,"Thorsten hat berichtet, dass sich die Kinder für französischen Rap interessieren.","Thorsten hat berichtet, dass die Kinder für französischen Rap sich interessieren.",accept,?,17:41:18,17:41:26,7395,63
447,f14,control,related,,,,EO_cong,accept,below,"Marek hat gehört, dass ein Kompliment einen Mitspieler erheitert hat.","Marek hat gehört, dass ein Kompliment einen Mitspieler erheitert haben.",accept,*,17:41:26,17:41:34,7835,64
447,f56,filler,unrelated,,,,weather_es,accept,below,"Nadja hat gesagt, dass es gestern gehagelt hat.","Nadja hat gesagt, dass gestern gehagelt hat.",accept,*,17:41:34,17:41:38,4108,65
447,t12,test,,dat,EO,gefallen,test,ObjSubj,below,"Ali hat gesagt, dass ein Selbstporträt einem Maler gefallen hat.","Ali hat gesagt, dass einem Maler ein Selbstporträt gefallen hat.",SubjObj,ObjSubj,17:41:38,17:41:45,6954,66
447,f01,attention,related,,,,EO_perf_aux,accept,above,"Sarah hat erzählt, dass das Kompliment einem Studenten geschmeichelt hat.","Sarah hat erzählt, dass das Kompliment einem Studenten geschmeichelt ist.",accept,*,17:41:45,17:41:56,10877,67
447,f13,control,related,,,,EO_cong,accept,above,"Ali hat mitbekommen, dass die Behandlung den Patienten aufgewühlt hat.","Ali hat mitbekommen, dass die Behandlung den Patienten aufgewühlt haben.",accept,*,17:41:56,17:42:14,18414,68
447,f59,filler,unrelated,,,,pers_pron,accept_SO,below,"Ali hat erzählt, dass er ihnen ein Eis spendiert hat.","Ali hat erzählt, dass ihnen er ein Eis spendiert hat.",accept_SO,*_OS,17:42:14,17:42:20,6373,69
447,f12,control,related,,,,EO_prep,accept,below,"David hat erzählt, dass sich der Trainer über sein Missgeschick amüsiert hat.","David hat erzählt, dass sich der Trainer um sein Missgeschick amüsiert hat.",accept,*,17:42:20,17:42:31,10841,70
447,f05,attention,related,,,,EO_perf_aux,accept,below,"Nora hat mitbekommen, dass der Fleck einen Bekannten gestört hat.","Nora hat mitbekommen, dass der Fleck einen Bekannten gestört ist.",accept,*,17:42:31,17:42:41,9686,71
447,f11,control,related,,,,EO_prep,accept,below,"Nele hat berichtet, dass sich die Chefin über das Geschenk gefreut hat.","Nele hat berichtet, dass sich die Chefin um das Geschenk gefreut hat.",accept,*,17:42:41,17:42:45,4273,72
447,f53,filler,related,,,,BenO_acc,SubjObj,below,"Nele hat berichtet, dass ein Zufall einen Mann gerettet hat.","Nele hat berichtet, dass einen Mann ein Zufall gerettet hat.",SubjObj,ObjSubj,17:42:45,17:42:52,6613,73
447,t05,test,,acc,EO,bezaubern,test,SubjObj,above,"Eva hat erzählt, dass ein Holzspielzeug einen Jungen bezaubert hat.","Eva hat erzählt, dass einen Jungen ein Holzspielzeug bezaubert hat.",SubjObj,ObjSubj,17:42:52,17:42:58,6440,74
447,f03,attention,related,,,,EO_perf_aux,accept,below,"Ali hat mitbekommen, dass die Verletzung einen Mitspieler schockiert hat.","Ali hat mitbekommen, dass die Verletzung einen Mitspieler schockiert ist.",accept,*,17:42:58,17:43:04,5405,75
447,f16,control,related,,,,EO_art,accept,above,"Kira hat gehört, dass die Route eine Bergsteigerin frustriert hat.","Kira hat gehört, dass die Route einem Bergsteigerin frustriert hat.",accept,*,17:43:04,17:43:14,9910,76
447,f51,filler,related,,,,BenO_dat,ObjSubj,below,"Selma hat erzählt, dass eine Haftstrafe einem Erpresser gedroht hat.","Selma hat erzählt, dass einem Erpresser eine Haftstrafe gedroht hat.",SubjObj,ObjSubj,17:43:14,17:43:28,14399,77
447,f23,control,unrelated,,,,v2,accept,above,"Kira hat gemeint, dass ein Mitschüler gestern geschlafen hat.","Kira hat gemeint, dass ein Mitschüler hat gestern geschlafen.",accept,*,17:43:28,17:43:40,12275,78
447,f42,filler,related,,,,Unacc_dat,ObjSubj,above,"Sarah hat gehört, dass eine Zutat einem Bäcker ausgegangen ist.","Sarah hat gehört, dass einem Bäcker eine Zutat ausgegangen ist.",SubjObj,ObjSubj,17:43:40,17:43:51,10345,79
447,t08,test,,acc,EO,verärgern,test,SubjObj,above,"Anna hat gesagt, dass ein Verfahren einen Richter verärgert hat.","Anna hat gesagt, dass einen Richter ein Verfahren verärgert hat.",SubjObj,ObjSubj,17:43:51,17:43:59,7980,80
447,f39,filler,related,,,,BenO_dat,SubjObj,below,"Leon hat berichtet, dass eine Erkenntnis einem Bekannten genützt hat.","Leon hat berichtet, dass einem Bekannten eine Erkenntnis genützt hat.",SubjObj,ObjSubj,17:43:59,17:44:09,10043,81
446,f27,calibration,related,,,,EO_perf_aux,accept,below,"Marek hat berichtet, dass der Film einen Kritiker gelangweilt hat.","Marek hat berichtet, dass der Film einen Kritiker gelangweilt ist.",accept,*,17:30:54,17:31:05,10505,0
446,f30,calibration,related,,,,def,accept,above,"Kira hat gesagt, dass den Stadtwerken ein hoher Betrag überwiesen wurde.","Kira hat gesagt, dass ein hoher Betrag den Stadtwerken überwiesen wurde.",accept,?,17:31:05,17:31:16,10671,1
446,f29,calibration,related,,,,refl_ES,accept,below,"Julia hat erzählt, dass sich ihr Bruder für sein Verhalten geschämt hat.","Julia hat erzählt, dass ihr Bruder für sein Verhalten sich geschämt hat.",accept,?,17:31:16,17:31:24,7865,2
446,f28,calibration,related,,,,EO_perf_aux,accept,above,"Leon hat erwähnt, dass seiner Mutter die Entlassung zugesetzt hat.","Leon hat erwähnt, dass seiner Mutter die Entlassung zugesetzt ist.",accept,*,17:31:24,17:31:49,25056,3
446,f31,calibration,unrelated,,,,def,accept,below,"Sarah hat gehört, dass dem Nachbarn ein Paket gegeben wurde.","Sarah hat gehört, dass ein Paket dem Nachbarn gegeben wurde.",accept,?,17:31:49,17:31:57,8761,4
446,f32,calibration,unrelated,,,,v2,accept,below,"Jonas hat mitbekommen, dass gestern ein Lehrer verprügelt wurde.","Jonas hat mitbekommen, dass gestern wurde ein Lehrer verprügelt.",accept,*,17:31:57,17:32:05,7202,5
446,t07,test,,acc,EO,nerven,test,ObjSubj,above,"Nele hat berichtet, dass eine Karikatur einen Politiker genervt hat.","Nele hat berichtet, dass einen Politiker eine Karikatur genervt hat.",SubjObj,ObjSubj,17:32:05,17:32:17,12863,6
446,f05,attention,related,,,,EO_perf_aux,accept,below,"Nora hat mitbekommen, dass der Fleck einen Bekannten gestört hat.","Nora hat mitbekommen, dass der Fleck einen Bekannten gestört ist.",accept,*,17:32:17,17:32:23,5939,7
446,t08,test,,acc,EO,verärgern,test,SubjObj,below,"Anna hat gesagt, dass ein Verfahren einen Richter verärgert hat.","Anna hat gesagt, dass einen Richter ein Verfahren verärgert hat.",SubjObj,ObjSubj,17:32:23,17:32:32,8854,8
446,f55,filler,related,,,,BenO_dat,SubjObj,below,"Nele hat berichtet, dass ein Denkmal einem Staatsmann gegolten hat.","Nele hat berichtet, dass einem Staatsmann ein Denkmal gegolten hat.",SubjObj,ObjSubj,17:32:32,17:32:44,11670,9
446,t09,test,,dat,EO,auffallen,test,SubjObj,below,"Julia hat erzählt, dass eine Entwicklung einem Besucher aufgefallen ist.","Julia hat erzählt, dass einem Besucher eine Entwicklung aufgefallen ist.",SubjObj,ObjSubj,17:32:44,17:32:57,12623,10
446,f50,filler,related,,,,BenO_acc,SubjObj,above,"Sarah hat gehört, dass ein Fehler einen Turner begünstigt hat.","Sarah hat gehört, dass einen Turner ein Fehler begünstigt hat.",SubjObj,ObjSubj,17:32:57,17:33:07,10048,11
446,f07,attention,unrelated,,,,article_count,accept,below,"Julia hat angedeutet, dass ihr Chef einen älteren Herrn übers Ohr gehauen hat.","Julia hat angedeutet, dass ihr Chef älteren Herrn übers Ohr gehauen hat.",accept,*,17:33:07,17:33:15,8911,12
446,t01,test,,acc,EO,interessieren,test,ObjSubj,below,"Jonas hat erzählt, dass ein Piratenfilm einen Besucher interessiert hat.","Jonas hat erzählt, dass einen Besucher ein Piratenfilm interessiert hat.",SubjObj,ObjSubj,17:33:15,17:33:23,7218,13
446,f09,attention,unrelated,,,,weather_es,*,below,"Anna hat gehört, dass es in der Atacama-Wüste geregnet hat.","Anna hat gehört, dass in der Atacama-Wüste geregnet hat.",accept,*,17:33:23,17:34:05,42477,14
446,f56,filler,unrelated,,,,weather_es,accept,below,"Nadja hat gesagt, dass es gestern gehagelt hat.","Nadja hat gesagt, dass gestern gehagelt hat.",accept,*,17:34:05,17:34:12,7014,15
446,f02,attention,related,,,,EO_perf_aux,accept,below,"Eva hat gehört, dass dieser Kommentar einer Mitspielerin zugesetzt hat.","Eva hat gehört, dass dieser Kommentar einer Mitspielerin zugesetzt ist.",accept,*,17:34:12,17:34:42,30086,16
446,f57,filler,unrelated,,,,pers_pron,accept_SO,below,"David hat erzählt, dass er es gehört hat.","David hat erzählt, dass es er gehört hat.",accept_SO,*_OS,17:34:42,17:34:52,10167,17
446,f47,filler,related,,,,refl_ES,accept,below,"Thorsten hat berichtet, dass sich die Kinder für französischen Rap interessieren.","Thorsten hat berichtet, dass die Kinder für französischen Rap sich interessieren.",accept,?,17:34:52,17:35:02,9565,18
446,f36,filler,related,,,,BenO_acc,SubjObj,below,"Marek hat berichtet, dass ein Schneesturm einen Springer behindert hat.","Marek hat berichtet, dass einen Springer ein Schneesturm behindert hat.",SubjObj,ObjSubj,17:35:02,17:35:10,7880,19
446,t10,test,,dat,EO,behagen,test,SubjObj,below,"David hat gehört, dass eine Aufgabe einem Kletterer behagt hat.","David hat gehört, dass einem Kletterer eine Aufgabe behagt hat.",SubjObj,ObjSubj,17:35:10,17:35:18,8423,20
446,f52,filler,related,,,,BenO_dat,ObjSubj,below,"Julia hat erzählt, dass eine Niederlage einem Politiker angehaftet hat.","Julia hat erzählt, dass einem Politiker eine Niederlage angehaftet hat.",SubjObj,ObjSubj,17:35:18,17:35:27,8244,21
446,f60,filler,unrelated,,,,pers_pron,accept_SO,below,"Kira hat gehört, dass sie es ihm endlich zugeschickt haben.","Kira hat gehört, dass es sie ihm endlich zugeschickt haben.",accept_SO,*_OS,17:35:27,17:35:37,10135,22
446,t04,test,,acc,EO,verblüffen,test,SubjObj,below,"Marek hat berichtet, dass ein Resultat einen Forscher verblüfft hat.","Marek hat berichtet, dass einen Forscher ein Resultat verblüfft hat.",SubjObj,ObjSubj,17:35:37,17:35:50,13497,23
446,f39,filler,related,,,,BenO_dat,SubjObj,below,"Leon hat berichtet, dass eine Erkenntnis einem Bekannten genützt hat.","Leon hat berichtet, dass einem Bekannten eine Erkenntnis genützt hat.",SubjObj,ObjSubj,17:35:50,17:36:00,9834,24
446,t12,test,,dat,EO,gefallen,test,ObjSubj,above,"Ali hat gesagt, dass ein Selbstporträt einem Maler gefallen hat.","Ali hat gesagt, dass einem Maler ein Selbstporträt gefallen hat.",SubjObj,ObjSubj,17:36:00,17:36:08,7772,25
446,f04,attention,related,,,,EO_perf_aux,accept,below,"Tina hat erzählt, dass eine Beleidigung einem Künstler leidgetan hat.","Tina hat erzählt, dass eine Beleidigung einem Künstler leidgetan ist.",accept,*,17:36:08,17:36:38,30132,26
446,f03,attention,related,,,,EO_perf_aux,accept,above,"Ali hat mitbekommen, dass die Verletzung einen Mitspieler schockiert hat.","Ali hat mitbekommen, dass die Verletzung einen Mitspieler schockiert ist.",accept,*,17:36:38,17:36:45,7435,27
446,f22,control,unrelated,,,,v2,accept,above,"Maurice hat behauptet, dass er einem Schauspieler ähnelt.","Maurice hat behauptet, dass er ähnelt einem Schauspieler.",accept,*,17:36:45,17:36:58,12153,28
446,f10,attention,unrelated,,,,weather_es,*,below,"Maurice hat gesagt, dass es in Paderborn gestern gestürmt hat.","Maurice hat gesagt, dass in Paderborn gestern gestürmt hat.",accept,*,17:36:58,17:37:21,23025,29
446,t16,test,,dat,EO,widerstreben,test,SubjObj,below,"Anna hat gesagt, dass ein Ritual einem Priester widerstrebt hat.","Anna hat gesagt, dass einem Priester ein Ritual widerstrebt hat.",SubjObj,ObjSubj,17:37:21,17:37:43,22697,30
446,f61,filler,unrelated,,,,pers_pron,accept_SO,below,"Selma hat gesehen, dass er es in den Briefkasten geworfen hat.","Selma hat gesehen, dass es er in den Briefkasten geworfen hat.",accept_SO,*_OS,17:37:43,17:37:51,7668,31
446,t03,test,,acc,EO,ärgern,test,SubjObj,above,"Leon hat gesagt, dass ein Artikel einen Leser geärgert hat.","Leon hat gesagt, dass einen Leser ein Artikel geärgert hat.",SubjObj,ObjSubj,17:37:51,17:38:01,9906,32
446,f40,filler,related,,,,BenO_dat,ObjSubj,below,"Ali hat gesagt, dass ein Grenzwall einem König gedient hat.","Ali hat gesagt, dass einem König ein Grenzwall gedient hat.",SubjObj,ObjSubj,17:38:01,17:38:11,9674,33
446,f13,control,related,,,,EO_cong,accept,below,"Ali hat mitbekommen, dass die Behandlung den Patienten aufgewühlt hat.","Ali hat mitbekommen, dass die Behandlung den Patienten aufgewühlt haben.",accept,*,17:38:11,17:38:17,6143,34
446,f44,filler,related,,,,Unacc_dat,ObjSubj,above,"Leon hat berichtet, dass ein Tank einem Nachbarn übergelaufen ist.","Leon hat berichtet, dass einem Nachbarn ein Tank übergelaufen ist.",SubjObj,ObjSubj,17:38:17,17:38:26,9211,35
446,f24,control,unrelated,,,,pers_pron,accept,below,"Sarah hat erzählt, dass er ihr ein Handtuch gegeben hat.","Sarah hat erzählt, dass ihr er ein Handtuch gegeben hat.",accept,*,17:38:26,17:38:34,8073,36
446,f35,filler,related,,,,BenO_acc,SubjObj,above,"Leon hat gesagt, dass ein Bilanzskandal einen Aktionär geschädigt hat.","Leon hat gesagt, dass einen Aktionär ein Bilanzskandal geschädigt hat.",SubjObj,ObjSubj,17:38:34,17:38:46,12280,37
446,f12,control,related,,,,EO_prep,accept,above,"David hat erzählt, dass sich der Trainer über sein Missgeschick amüsiert hat.","David hat erzählt, dass sich der Trainer um sein Missgeschick amüsiert hat.",accept,*,17:38:46,17:38:57,10319,38
446,f37,filler,related,,,,BenO_dat,ObjSubj,below,"Julia hat erzählt, dass ein Medikament einem Patienten geholfen hat.","Julia hat erzählt, dass einem Patienten ein Medikament geholfen hat.",SubjObj,ObjSubj,17:38:57,17:39:13,16821,39
446,f18,control,related,,,,EO_art,accept,above,"Ali hat berichtet, dass diese Enthüllung einen Journalisten schockiert hat.","Ali hat berichtet, dass diese Enthüllung einer Journalisten schockiert hat.",accept,*,17:39:13,17:39:21,7598,40
446,f53,filler,related,,,,BenO_acc,SubjObj,above,"Nele hat berichtet, dass ein Zufall einen Mann gerettet hat.","Nele hat berichtet, dass einen Mann ein Zufall gerettet hat.",SubjObj,ObjSubj,17:39:21,17:39:36,15164,41
446,f64,filler,unrelated,,,,def,accept,above,"Leon hat erzählt, dass dem Hausmeister eine Torte geschenkt wurde.","Leon hat erzählt, dass eine Torte dem Hausmeister geschenkt wurde.",accept,?,17:39:36,17:39:44,7928,42
446,f26,control,unrelated,,,,pers_pron,accept,below,"Eva hat erzählt, dass sie ihn gestern getroffen hat.","Eva hat erzählt, dass ihn sie gestern getroffen hat.",accept,*,17:39:44,17:39:54,9872,43
446,f48,filler,related,,,,refl_ES,accept,above,"David hat mitbekommen, dass sich der Betreuer wieder erschreckt hat.","David hat mitbekommen, dass der Betreuer wieder sich erschreckt hat.",accept,?,17:39:54,17:40:05,10735,44
446,f25,control,unrelated,,,,pers_pron,accept,below,"Simon hat gehört, dass sie ihm etwas zugerufen hat.","Simon hat gehört, dass ihm sie etwas zugerufen hat.",accept,*,17:40:05,17:40:11,6679,45
446,f34,filler,related,,,,BenO_acc,SubjObj,below,"David hat gehört, dass ein Bremsassistent einen Autofahrer unterstützt hat.","David hat gehört, dass einen Autofahrer ein Bremsassistent unterstützt hat.",SubjObj,ObjSubj,17:40:11,17:40:28,16471,46
446,t05,test,,acc,EO,bezaubern,test,SubjObj,below,"Eva hat erzählt, dass ein Holzspielzeug einen Jungen bezaubert hat.","Eva hat erzählt, dass einen Jungen ein Holzspielzeug bezaubert hat.",SubjObj,ObjSubj,17:40:28,17:40:35,7049,47
446,f38,filler,related,,,,BenO_dat,SubjObj,below,"David hat gehört, dass eine Affäre einem Politiker geschadet hat.","David hat gehört, dass einem Politiker eine Affäre geschadet hat.",SubjObj,ObjSubj,17:40:35,17:40:41,6585,48
446,f58,filler,unrelated,,,,pers_pron,accept_SO,below,"Jonas hat erzählt, dass er es vorbereitet hat.","Jonas hat erzählt, dass es er vorbereitet hat.",accept_SO,*_OS,17:40:41,17:40:49,7005,49
446,f43,filler,related,,,,Unacc_dat,ObjSubj,above,"Anna hat gesagt, dass ein Joghurt einem Mitbewohner verschimmelt ist.","Anna hat gesagt, dass einem Mitbewohner ein Joghurt verschimmelt ist.",SubjObj,ObjSubj,17:40:49,17:40:56,7308,50
446,t06,test,,acc,EO,ängstigen,test,SubjObj,above,"Sarah hat gehört, dass eine Livesendung einen Zuschauer geängstigt hat.","Sarah hat gehört, dass einen Zuschauer eine Livesendung geängstigt hat.",SubjObj,ObjSubj,17:40:56,17:41:02,6235,51
446,f33,filler,related,,,,BenO_acc,SubjObj,below,"Jonas hat erzählt, dass ein Zwischenfall einen Beamten beeinträchtigt hat.","Jonas hat erzählt, dass einen Beamten ein Zwischenfall beeinträchtigt hat.",SubjObj,ObjSubj,17:41:02,17:41:09,6956,52
446,f14,control,related,,,,EO_cong,accept,below,"Marek hat gehört, dass ein Kompliment einen Mitspieler erheitert hat.","Marek hat gehört, dass ein Kompliment einen Mitspieler erheitert haben.",accept,*,17:41:09,17:41:25,15647,53
446,f49,filler,related,,,,BenO_acc,SubjObj,below,"Eva hat erzählt, dass ein Warnstreik einen Bürger eingeschränkt hat.","Eva hat erzählt, dass einen Bürger ein Warnstreik eingeschränkt hat.",SubjObj,ObjSubj,17:41:25,17:41:31,6217,54
446,t11,test,,dat,EO,einleuchten,test,ObjSubj,below,"Leon hat berichtet, dass ein Vorgehen einem Nachbarn eingeleuchtet hat.","Leon hat berichtet, dass einem Nachbarn ein Vorgehen eingeleuchtet hat.",SubjObj,ObjSubj,17:41:31,17:41:48,17371,55
446,f54,filler,related,,,,BenO_acc,SubjObj,above,"Anna hat gesagt, dass ein Sicherheitsgurt einen Autofahrer geschützt hat.","Anna hat gesagt, dass einen Autofahrer ein Sicherheitsgurt geschützt hat.",SubjObj,ObjSubj,17:41:48,17:41:57,9216,56
446,f23,control,unrelated,,,,v2,accept,below,"Kira hat gemeint, dass ein Mitschüler gestern geschlafen hat.","Kira hat gemeint, dass ein Mitschüler hat gestern geschlafen.",accept,*,17:41:57,17:42:05,7515,57
446,f66,filler,unrelated,,,,Action_perf_aux,accept,above,"Nele hat gesagt, dass ihre Tochter das Loch gebohrt hat.","Nele hat gesagt, dass ihre Tochter das Loch gebohrt ist.",accept,*,17:42:05,17:42:11,5762,58
446,f16,control,related,,,,EO_art,accept,below,"Kira hat gehört, dass die Route eine Bergsteigerin frustriert hat.","Kira hat gehört, dass die Route einem Bergsteigerin frustriert hat.",accept,*,17:42:11,17:42:17,6707,59
446,f41,filler,related,,,,Unacc_dat,ObjSubj,below,"David hat erzählt, dass ein Pullover einem Freund eingelaufen ist.","David hat erzählt, dass einem Freund ein Pullover eingelaufen ist.",SubjObj,ObjSubj,17:42:17,17:42:24,6668,60
446,t14,test,,dat,EO,missfallen,test,ObjSubj,above,"Sarah hat gehört, dass eine Aussage einem General missfallen hat.","Sarah hat gehört, dass einem General eine Aussage missfallen hat.",SubjObj,ObjSubj,17:42:24,17:42:33,8692,61
446,f42,filler,related,,,,Unacc_dat,SubjObj,above,"Sarah hat gehört, dass eine Zutat einem Bäcker ausgegangen ist.","Sarah hat gehört, dass einem Bäcker eine Zutat ausgegangen ist.",SubjObj,ObjSubj,17:42:33,17:42:41,8440,62
446,f15,control,related,,,,EO_art,accept,above,"Maryam hat gesagt, dass der Mantel die Kollegin begeistert hat.","Maryam hat gesagt, dass der Mantel den Kollegin begeistert hat.",accept,*,17:42:41,17:42:50,9017,63
446,f51,filler,related,,,,BenO_dat,ObjSubj,below,"Selma hat erzählt, dass eine Haftstrafe einem Erpresser gedroht hat.","Selma hat erzählt, dass einem Erpresser eine Haftstrafe gedroht hat.",SubjObj,ObjSubj,17:42:50,17:43:00,10104,64
446,f45,filler,related,,,,refl_ES,accept,below,"Nadja hat gehört, dass sich ihre Mutter über das Geschenk gefreut hat.","Nadja hat gehört, dass ihre Mutter über das Geschenk sich gefreut hat.",accept,?,17:43:00,17:43:14,14007,65
446,f20,control,unrelated,,,,article_count,accept,above,"Marek hat mitbekommen, dass sich eine Kollegin abfällig über eine Verwandte geäußert hat.","Marek hat mitbekommen, dass sich Kollegin abfällig über eine Verwandte geäußert hat.",accept,*,17:43:14,17:43:22,7459,66
446,f06,attention,unrelated,,,,article_count,accept,above,"Maurice hat gesagt, dass der Mond aufgegangen ist.","Maurice hat gesagt, dass Mond aufgegangen ist.",accept,*,17:43:22,17:43:33,11155,67
446,f11,control,related,,,,EO_prep,accept,above,"Nele hat berichtet, dass sich die Chefin über das Geschenk gefreut hat.","Nele hat berichtet, dass sich die Chefin um das Geschenk gefreut hat.",accept,*,17:43:33,17:43:38,4954,68
446,f08,attention,unrelated,,,,weather_es,accept,below,"Marek hat erzählt, dass es in Österreich geschneit hat.","Marek hat erzählt, dass in Österreich geschneit hat.",accept,*,17:43:38,17:43:43,5367,69
446,t02,test,,acc,EO,anwidern,test,SubjObj,above,"David hat gehört, dass ein Spektakel einen Anwalt angewidert hat.","David hat gehört, dass einen Anwalt ein Spektakel angewidert hat.",SubjObj,ObjSubj,17:43:43,17:43:53,9976,70
446,f65,filler,unrelated,,,,def,accept,above,"Julia hat gesagt, dass dem Kind ein Spielzeug gegeben wurde.","Julia hat gesagt, dass ein Spielzeug dem Kind gegeben wurde.",accept,?,17:43:53,17:44:17,24104,71
446,f19,control,unrelated,,,,article_count,accept,above,"Nora hat gehört, dass sich ihr Chef in eine Beraterin verliebt hat.","Nora hat gehört, dass sich ihr Chef in Beraterin verliebt hat.",accept,*,17:44:17,17:44:32,14557,72
446,f01,attention,related,,,,EO_perf_aux,accept,below,"Sarah hat erzählt, dass das Kompliment einem Studenten geschmeichelt hat.","Sarah hat erzählt, dass das Kompliment einem Studenten geschmeichelt ist.",accept,*,17:44:32,17:44:49,16737,73
446,t13,test,,dat,EO,imponieren,test,SubjObj,above,"Selma hat erzählt, dass ein Angebot einem Kunden imponiert hat.","Selma hat erzählt, dass einem Kunden ein Angebot imponiert hat.",SubjObj,ObjSubj,17:44:49,17:44:57,8335,74
446,f63,filler,unrelated,,,,def,accept,below,"Anna hat gehört, dass dem Mann ein Bild gezeigt wurde.","Anna hat gehört, dass ein Bild dem Mann gezeigt wurde.",accept,?,17:44:57,17:45:03,6346,75
446,f17,control,related,,,,EO_art,accept,above,"Leon hat erzählt, dass das bekannte Problem den Kanzlerkandidaten bedrückt hat.","Leon hat erzählt, dass die bekannte Problem den Kanzlerkandidaten bedrückt hat.",accept,*,17:45:03,17:45:09,5635,76
446,f62,filler,related,,,,BenO_dat,SubjObj,above,"Sarah hat gehört, dass eine App einem Nutzer assistiert hat.","Sarah hat gehört, dass einem Nutzer eine App assistiert hat.",SubjObj,ObjSubj,17:45:09,17:45:16,6740,77
446,t15,test,,dat,EO,nahegehen,test,ObjSubj,above,"Nele hat berichtet, dass ein Missgeschick einem Kollegen nahegegangen ist.","Nele hat berichtet, dass einem Kollegen ein Missgeschick nahegegangen ist.",SubjObj,ObjSubj,17:45:16,17:45:25,9105,78
446,f46,filler,related,,,,refl_ES,accept,above,"Anna hat erzählt, dass sich eine Geschäftspartnerin über die hiesigen Gepflogenheiten gewundert hat.","Anna hat erzählt, dass eine Geschäftspartnerin über die hiesigen Gepflogenheiten sich gewundert hat.",accept,?,17:45:25,17:45:33,8011,79
446,f21,control,unrelated,,,,v2,accept,above,"Maryam hat erzählt, dass sie einem Bedürftigen Geld zukommen lässt.","Maryam hat erzählt, dass sie lässt einem Bedürftigen Geld zukommen.",accept,*,17:45:33,17:45:40,6617,80
446,f59,filler,unrelated,,,,pers_pron,accept_SO,above,"Ali hat erzählt, dass er ihnen ein Eis spendiert hat.","Ali hat erzählt, dass ihnen er ein Eis spendiert hat.",accept_SO,*_OS,17:45:40,17:45:45,5609,81
444,f27,calibration,related,,,,EO_perf_aux,accept,below,"Marek hat berichtet, dass der Film einen Kritiker gelangweilt hat.","Marek hat berichtet, dass der Film einen Kritiker gelangweilt ist.",accept,*,17:30:21,17:30:37,16403,0
444,f32,calibration,unrelated,,,,v2,accept,below,"Jonas hat mitbekommen, dass gestern ein Lehrer verprügelt wurde.","Jonas hat mitbekommen, dass gestern wurde ein Lehrer verprügelt.",accept,*,17:30:37,17:30:44,6502,1
444,f28,calibration,related,,,,EO_perf_aux,accept,above,"Leon hat erwähnt, dass seiner Mutter die Entlassung zugesetzt hat.","Leon hat erwähnt, dass seiner Mutter die Entlassung zugesetzt ist.",accept,*,17:30:44,17:30:53,8956,2
444,f31,calibration,unrelated,,,,def,accept,below,"Sarah hat gehört, dass dem Nachbarn ein Paket gegeben wurde.","Sarah hat gehört, dass ein Paket dem Nachbarn gegeben wurde.",accept,?,17:30:53,17:31:03,10623,3
444,f29,calibration,related,,,,refl_ES,accept,below,"Julia hat erzählt, dass sich ihr Bruder für sein Verhalten geschämt hat.","Julia hat erzählt, dass ihr Bruder für sein Verhalten sich geschämt hat.",accept,?,17:31:03,17:31:09,5871,4
444,f30,calibration,related,,,,def,accept,above,"Kira hat gesagt, dass den Stadtwerken ein hoher Betrag überwiesen wurde.","Kira hat gesagt, dass ein hoher Betrag den Stadtwerken überwiesen wurde.",accept,?,17:31:09,17:31:19,9827,5
444,f05,attention,related,,,,EO_perf_aux,accept,above,"Nora hat mitbekommen, dass der Fleck einen Bekannten gestört hat.","Nora hat mitbekommen, dass der Fleck einen Bekannten gestört ist.",accept,*,17:31:19,17:31:29,10342,6
444,f36,filler,related,,,,BenO_acc,SubjObj,below,"Marek hat berichtet, dass ein Schneesturm einen Springer behindert hat.","Marek hat berichtet, dass einen Springer ein Schneesturm behindert hat.",SubjObj,ObjSubj,17:31:29,17:31:36,6680,7
444,f02,attention,related,,,,EO_perf_aux,accept,below,"Eva hat gehört, dass dieser Kommentar einer Mitspielerin zugesetzt hat.","Eva hat gehört, dass dieser Kommentar einer Mitspielerin zugesetzt ist.",accept,*,17:31:36,17:31:43,6449,8
444,f09,attention,unrelated,,,,weather_es,accept,below,"Anna hat gehört, dass es in der Atacama-Wüste geregnet hat.","Anna hat gehört, dass in der Atacama-Wüste geregnet hat.",accept,*,17:31:43,17:31:48,5646,9
444,f49,filler,related,,,,BenO_acc,SubjObj,above,"Eva hat erzählt, dass ein Warnstreik einen Bürger eingeschränkt hat.","Eva hat erzählt, dass einen Bürger ein Warnstreik eingeschränkt hat.",SubjObj,ObjSubj,17:31:48,17:31:57,8847,10
444,t07,test,,acc,EO,nerven,test,ObjSubj,above,"Nele hat berichtet, dass eine Karikatur einen Politiker genervt hat.","Nele hat berichtet, dass einen Politiker eine Karikatur genervt hat.",SubjObj,ObjSubj,17:31:57,17:32:04,7045,11
444,f10,attention,unrelated,,,,weather_es,accept,above,"Maurice hat gesagt, dass es in Paderborn gestern gestürmt hat.","Maurice hat gesagt, dass in Paderborn gestern gestürmt hat.",accept,*,17:32:04,17:32:12,8081,12
444,t04,test,,acc,EO,verblüffen,test,SubjObj,below,"Marek hat berichtet, dass ein Resultat einen Forscher verblüfft hat.","Marek hat berichtet, dass einen Forscher ein Resultat verblüfft hat.",SubjObj,ObjSubj,17:32:12,17:32:19,6924,13
444,f08,attention,unrelated,,,,weather_es,accept,above,"Marek hat erzählt, dass es in Österreich geschneit hat.","Marek hat erzählt, dass in Österreich geschneit hat.",accept,*,17:32:19,17:32:26,6761,14
444,t14,test,,dat,EO,missfallen,test,ObjSubj,above,"Sarah hat gehört, dass eine Aussage einem General missfallen hat.","Sarah hat gehört, dass einem General eine Aussage missfallen hat.",SubjObj,ObjSubj,17:32:26,17:32:33,7352,15
444,f43,filler,related,,,,Unacc_dat,ObjSubj,below,"Anna hat gesagt, dass ein Joghurt einem Mitbewohner verschimmelt ist.","Anna hat gesagt, dass einem Mitbewohner ein Joghurt verschimmelt ist.",SubjObj,ObjSubj,17:32:33,17:32:39,5770,16
444,f34,filler,related,,,,BenO_acc,SubjObj,below,"David hat gehört, dass ein Bremsassistent einen Autofahrer unterstützt hat.","David hat gehört, dass einen Autofahrer ein Bremsassistent unterstützt hat.",SubjObj,ObjSubj,17:32:39,17:32:48,8748,17
444,f33,filler,related,,,,BenO_acc,SubjObj,below,"Jonas hat erzählt, dass ein Zwischenfall einen Beamten beeinträchtigt hat.","Jonas hat erzählt, dass einen Beamten ein Zwischenfall beeinträchtigt hat.",SubjObj,ObjSubj,17:32:48,17:32:57,8640,18
444,f47,filler,related,,,,refl_ES,accept,below,"Thorsten hat berichtet, dass sich die Kinder für französischen Rap interessieren.","Thorsten hat berichtet, dass die Kinder für französischen Rap sich interessieren.",accept,?,17:32:57,17:33:02,5481,19
444,t16,test,,dat,EO,widerstreben,test,ObjSubj,below,"Anna hat gesagt, dass ein Ritual einem Priester widerstrebt hat.","Anna hat gesagt, dass einem Priester ein Ritual widerstrebt hat.",SubjObj,ObjSubj,17:33:02,17:33:08,6199,20
444,f07,attention,unrelated,,,,article_count,accept,above,"Julia hat angedeutet, dass ihr Chef einen älteren Herrn übers Ohr gehauen hat.","Julia hat angedeutet, dass ihr Chef älteren Herrn übers Ohr gehauen hat.",accept,*,17:33:08,17:33:16,7807,21
444,f48,filler,related,,,,refl_ES,accept,above,"David hat mitbekommen, dass sich der Betreuer wieder erschreckt hat.","David hat mitbekommen, dass der Betreuer wieder sich erschreckt hat.",accept,?,17:33:16,17:33:22,6278,22
444,f01,attention,related,,,,EO_perf_aux,accept,below,"Sarah hat erzählt, dass das Kompliment einem Studenten geschmeichelt hat.","Sarah hat erzählt, dass das Kompliment einem Studenten geschmeichelt ist.",accept,*,17:33:22,17:33:30,7732,23
444,f42,filler,related,,,,Unacc_dat,ObjSubj,below,"Sarah hat gehört, dass eine Zutat einem Bäcker ausgegangen ist.","Sarah hat gehört, dass einem Bäcker eine Zutat ausgegangen ist.",SubjObj,ObjSubj,17:33:30,17:33:35,5094,24
444,t11,test,,dat,EO,einleuchten,test,ObjSubj,below,"Leon hat berichtet, dass ein Vorgehen einem Nachbarn eingeleuchtet hat.","Leon hat berichtet, dass einem Nachbarn ein Vorgehen eingeleuchtet hat.",SubjObj,ObjSubj,17:33:35,17:33:46,11191,25
444,f58,filler,unrelated,,,,pers_pron,accept_SO,below,"Jonas hat erzählt, dass er es vorbereitet hat.","Jonas hat erzählt, dass es er vorbereitet hat.",accept_SO,*_OS,17:33:46,17:34:01,14359,26
444,f04,attention,related,,,,EO_perf_aux,accept,below,"Tina hat erzählt, dass eine Beleidigung einem Künstler leidgetan hat.","Tina hat erzählt, dass eine Beleidigung einem Künstler leidgetan ist.",accept,*,17:34:01,17:34:12,10994,27
444,t03,test,,acc,EO,ärgern,test,SubjObj,below,"Leon hat gesagt, dass ein Artikel einen Leser geärgert hat.","Leon hat gesagt, dass einen Leser ein Artikel geärgert hat.",SubjObj,ObjSubj,17:34:12,17:34:21,8748,28
444,f44,filler,related,,,,Unacc_dat,ObjSubj,below,"Leon hat berichtet, dass ein Tank einem Nachbarn übergelaufen ist.","Leon hat berichtet, dass einem Nachbarn ein Tank übergelaufen ist.",SubjObj,ObjSubj,17:34:21,17:34:29,8643,29
444,f23,control,unrelated,,,,v2,accept,above,"Kira hat gemeint, dass ein Mitschüler gestern geschlafen hat.","Kira hat gemeint, dass ein Mitschüler hat gestern geschlafen.",accept,*,17:34:29,17:34:36,7094,30
444,f53,filler,related,,,,BenO_acc,SubjObj,below,"Nele hat berichtet, dass ein Zufall einen Mann gerettet hat.","Nele hat berichtet, dass einen Mann ein Zufall gerettet hat.",SubjObj,ObjSubj,17:34:36,17:34:43,6462,31
444,t02,test,,acc,EO,anwidern,test,ObjSubj,below,"David hat gehört, dass ein Spektakel einen Anwalt angewidert hat.","David hat gehört, dass einen Anwalt ein Spektakel angewidert hat.",SubjObj,ObjSubj,17:34:43,17:34:52,9173,32
444,f06,attention,unrelated,,,,article_count,accept,below,"Maurice hat gesagt, dass der Mond aufgegangen ist.","Maurice hat gesagt, dass Mond aufgegangen ist.",accept,*,17:34:52,17:34:56,4384,33
444,t05,test,,acc,EO,bezaubern,test,SubjObj,below,"Eva hat erzählt, dass ein Holzspielzeug einen Jungen bezaubert hat.","Eva hat erzählt, dass einen Jungen ein Holzspielzeug bezaubert hat.",SubjObj,ObjSubj,17:34:56,17:35:04,7942,34
444,f64,filler,unrelated,,,,def,accept,above,"Leon hat erzählt, dass dem Hausmeister eine Torte geschenkt wurde.","Leon hat erzählt, dass eine Torte dem Hausmeister geschenkt wurde.",accept,?,17:35:04,17:35:11,6574,35
444,f24,control,unrelated,,,,pers_pron,accept,below,"Sarah hat erzählt, dass er ihr ein Handtuch gegeben hat.","Sarah hat erzählt, dass ihr er ein Handtuch gegeben hat.",accept,*,17:35:11,17:35:19,8583,36
444,f55,filler,related,,,,BenO_dat,ObjSubj,below,"Nele hat berichtet, dass ein Denkmal einem Staatsmann gegolten hat.","Nele hat berichtet, dass einem Staatsmann ein Denkmal gegolten hat.",SubjObj,ObjSubj,17:35:19,17:35:25,5950,37
444,f14,control,related,,,,EO_cong,accept,below,"Marek hat gehört, dass ein Kompliment einen Mitspieler erheitert hat.","Marek hat gehört, dass ein Kompliment einen Mitspieler erheitert haben.",accept,*,17:35:25,17:35:32,6156,38
444,f37,filler,related,,,,BenO_dat,SubjObj,above,"Julia hat erzählt, dass ein Medikament einem Patienten geholfen hat.","Julia hat erzählt, dass einem Patienten ein Medikament geholfen hat.",SubjObj,ObjSubj,17:35:32,17:35:40,8161,39
444,f11,control,related,,,,EO_prep,accept,above,"Nele hat berichtet, dass sich die Chefin über das Geschenk gefreut hat.","Nele hat berichtet, dass sich die Chefin um das Geschenk gefreut hat.",accept,*,17:35:40,17:35:47,7000,40
444,f51,filler,related,,,,BenO_dat,ObjSubj,above,"Selma hat erzählt, dass eine Haftstrafe einem Erpresser gedroht hat.","Selma hat erzählt, dass einem Erpresser eine Haftstrafe gedroht hat.",SubjObj,ObjSubj,17:35:47,17:35:54,7236,41
444,t09,test,,dat,EO,auffallen,test,ObjSubj,below,"Julia hat erzählt, dass eine Entwicklung einem Besucher aufgefallen ist.","Julia hat erzählt, dass einem Besucher eine Entwicklung aufgefallen ist.",SubjObj,ObjSubj,17:35:54,17:36:00,6228,42
444,f59,filler,unrelated,,,,pers_pron,accept_SO,above,"Ali hat erzählt, dass er ihnen ein Eis spendiert hat.","Ali hat erzählt, dass ihnen er ein Eis spendiert hat.",accept_SO,*_OS,17:36:00,17:36:07,7183,43
444,f15,control,related,,,,EO_art,accept,below,"Maryam hat gesagt, dass der Mantel die Kollegin begeistert hat.","Maryam hat gesagt, dass der Mantel den Kollegin begeistert hat.",accept,*,17:36:07,17:36:13,5397,44
444,f50,filler,related,,,,BenO_acc,SubjObj,below,"Sarah hat gehört, dass ein Fehler einen Turner begünstigt hat.","Sarah hat gehört, dass einen Turner ein Fehler begünstigt hat.",SubjObj,ObjSubj,17:36:13,17:36:21,7995,45
444,f20,control,unrelated,,,,article_count,accept,below,"Marek hat mitbekommen, dass sich eine Kollegin abfällig über eine Verwandte geäußert hat.","Marek hat mitbekommen, dass sich Kollegin abfällig über eine Verwandte geäußert hat.",accept,*,17:36:21,17:36:26,5561,46
444,f03,attention,related,,,,EO_perf_aux,*,below,"Ali hat mitbekommen, dass die Verletzung einen Mitspieler schockiert hat.","Ali hat mitbekommen, dass die Verletzung einen Mitspieler schockiert ist.",accept,*,17:36:26,17:36:32,5992,47
444,f25,control,unrelated,,,,pers_pron,accept,below,"Simon hat gehört, dass sie ihm etwas zugerufen hat.","Simon hat gehört, dass ihm sie etwas zugerufen hat.",accept,*,17:36:32,17:36:39,6975,48
444,f61,filler,unrelated,,,,pers_pron,accept_SO,above,"Selma hat gesehen, dass er es in den Briefkasten geworfen hat.","Selma hat gesehen, dass es er in den Briefkasten geworfen hat.",accept_SO,*_OS,17:36:39,17:36:45,5284,49
444,t08,test,,acc,EO,verärgern,test,SubjObj,below,"Anna hat gesagt, dass ein Verfahren einen Richter verärgert hat.","Anna hat gesagt, dass einen Richter ein Verfahren verärgert hat.",SubjObj,ObjSubj,17:36:45,17:36:52,7244,50
444,f40,filler,related,,,,BenO_dat,ObjSubj,above,"Ali hat gesagt, dass ein Grenzwall einem König gedient hat.","Ali hat gesagt, dass einem König ein Grenzwall gedient hat.",SubjObj,ObjSubj,17:36:52,17:37:02,9628,51
444,t15,test,,dat,EO,nahegehen,test,SubjObj,below,"Nele hat berichtet, dass ein Missgeschick einem Kollegen nahegegangen ist.","Nele hat berichtet, dass einem Kollegen ein Missgeschick nahegegangen ist.",SubjObj,ObjSubj,17:37:02,17:37:15,13619,52
444,f39,filler,related,,,,BenO_dat,SubjObj,below,"Leon hat berichtet, dass eine Erkenntnis einem Bekannten genützt hat.","Leon hat berichtet, dass einem Bekannten eine Erkenntnis genützt hat.",SubjObj,ObjSubj,17:37:15,17:37:27,11836,53
444,t01,test,,acc,EO,interessieren,test,ObjSubj,above,"Jonas hat erzählt, dass ein Piratenfilm einen Besucher interessiert hat.","Jonas hat erzählt, dass einen Besucher ein Piratenfilm interessiert hat.",SubjObj,ObjSubj,17:37:27,17:37:35,8215,54
444,f35,filler,related,,,,BenO_acc,SubjObj,above,"Leon hat gesagt, dass ein Bilanzskandal einen Aktionär geschädigt hat.","Leon hat gesagt, dass einen Aktionär ein Bilanzskandal geschädigt hat.",SubjObj,ObjSubj,17:37:35,17:37:42,7238,55
444,f19,control,unrelated,,,,article_count,accept,above,"Nora hat gehört, dass sich ihr Chef in eine Beraterin verliebt hat.","Nora hat gehört, dass sich ihr Chef in Beraterin verliebt hat.",accept,*,17:37:42,17:37:50,7825,56
444,f60,filler,unrelated,,,,pers_pron,accept_SO,below,"Kira hat gehört, dass sie es ihm endlich zugeschickt haben.","Kira hat gehört, dass es sie ihm endlich zugeschickt haben.",accept_SO,*_OS,17:37:50,17:37:58,7354,57
444,t13,test,,dat,EO,imponieren,test,ObjSubj,below,"Selma hat erzählt, dass ein Angebot einem Kunden imponiert hat.","Selma hat erzählt, dass einem Kunden ein Angebot imponiert hat.",SubjObj,ObjSubj,17:37:58,17:38:07,9050,58
444,f63,filler,unrelated,,,,def,accept,above,"Anna hat gehört, dass dem Mann ein Bild gezeigt wurde.","Anna hat gehört, dass ein Bild dem Mann gezeigt wurde.",accept,?,17:38:07,17:38:12,5268,59
444,f22,control,unrelated,,,,v2,accept,below,"Maurice hat behauptet, dass er einem Schauspieler ähnelt.","Maurice hat behauptet, dass er ähnelt einem Schauspieler.",accept,*,17:38:12,17:38:18,5520,60
444,f56,filler,unrelated,,,,weather_es,accept,below,"Nadja hat gesagt, dass es gestern gehagelt hat.","Nadja hat gesagt, dass gestern gehagelt hat.",accept,*,17:38:18,17:38:22,4699,61
444,f17,control,related,,,,EO_art,accept,above,"Leon hat erzählt, dass das bekannte Problem den Kanzlerkandidaten bedrückt hat.","Leon hat erzählt, dass die bekannte Problem den Kanzlerkandidaten bedrückt hat.",accept,*,17:38:22,17:38:35,12787,62
444,f52,filler,related,,,,BenO_dat,ObjSubj,below,"Julia hat erzählt, dass eine Niederlage einem Politiker angehaftet hat.","Julia hat erzählt, dass einem Politiker eine Niederlage angehaftet hat.",SubjObj,ObjSubj,17:38:35,17:38:43,8043,63
444,f21,control,unrelated,,,,v2,accept,below,"Maryam hat erzählt, dass sie einem Bedürftigen Geld zukommen lässt.","Maryam hat erzählt, dass sie lässt einem Bedürftigen Geld zukommen.",accept,*,17:38:43,17:38:48,5000,64
444,f54,filler,related,,,,BenO_acc,ObjSubj,above,"Anna hat gesagt, dass ein Sicherheitsgurt einen Autofahrer geschützt hat.","Anna hat gesagt, dass einen Autofahrer ein Sicherheitsgurt geschützt hat.",SubjObj,ObjSubj,17:38:48,17:39:04,16011,65
444,f18,control,related,,,,EO_art,accept,above,"Ali hat berichtet, dass diese Enthüllung einen Journalisten schockiert hat.","Ali hat berichtet, dass diese Enthüllung einer Journalisten schockiert hat.",accept,*,17:39:04,17:39:13,9079,66
444,f57,filler,unrelated,,,,pers_pron,accept_SO,above,"David hat erzählt, dass er es gehört hat.","David hat erzählt, dass es er gehört hat.",accept_SO,*_OS,17:39:13,17:39:18,4544,67
444,t12,test,,dat,EO,gefallen,test,ObjSubj,below,"Ali hat gesagt, dass ein Selbstporträt einem Maler gefallen hat.","Ali hat gesagt, dass einem Maler ein Selbstporträt gefallen hat.",SubjObj,ObjSubj,17:39:18,17:39:24,6424,68
444,f38,filler,related,,,,BenO_dat,SubjObj,below,"David hat gehört, dass eine Affäre einem Politiker geschadet hat.","David hat gehört, dass einem Politiker eine Affäre geschadet hat.",SubjObj,ObjSubj,17:39:24,17:39:34,9692,69
444,t06,test,,acc,EO,ängstigen,test,SubjObj,below,"Sarah hat gehört, dass eine Livesendung einen Zuschauer geängstigt hat.","Sarah hat gehört, dass einen Zuschauer eine Livesendung geängstigt hat.",SubjObj,ObjSubj,17:39:34,17:39:43,9039,70
444,f41,filler,related,,,,Unacc_dat,ObjSubj,below,"David hat erzählt, dass ein Pullover einem Freund eingelaufen ist.","David hat erzählt, dass einem Freund ein Pullover eingelaufen ist.",SubjObj,ObjSubj,17:39:43,17:39:48,5336,71
444,f13,control,related,,,,EO_cong,accept,below,"Ali hat mitbekommen, dass die Behandlung den Patienten aufgewühlt hat.","Ali hat mitbekommen, dass die Behandlung den Patienten aufgewühlt haben.",accept,*,17:39:48,17:39:58,9876,72
444,f46,filler,related,,,,refl_ES,accept,below,"Anna hat erzählt, dass sich eine Geschäftspartnerin über die hiesigen Gepflogenheiten gewundert hat.","Anna hat erzählt, dass eine Geschäftspartnerin über die hiesigen Gepflogenheiten sich gewundert hat.",accept,?,17:39:58,17:40:05,6651,73
444,f12,control,related,,,,EO_prep,accept,below,"David hat erzählt, dass sich der Trainer über sein Missgeschick amüsiert hat.","David hat erzählt, dass sich der Trainer um sein Missgeschick amüsiert hat.",accept,*,17:40:05,17:40:13,8212,74
444,f62,filler,related,,,,BenO_dat,SubjObj,above,"Sarah hat gehört, dass eine App einem Nutzer assistiert hat.","Sarah hat gehört, dass einem Nutzer eine App assistiert hat.",SubjObj,ObjSubj,17:40:13,17:40:20,6850,75
444,t10,test,,dat,EO,behagen,test,SubjObj,below,"David hat gehört, dass eine Aufgabe einem Kletterer behagt hat.","David hat gehört, dass einem Kletterer eine Aufgabe behagt hat.",SubjObj,ObjSubj,17:40:20,17:40:29,9240,76
444,f66,filler,unrelated,,,,Action_perf_aux,accept,below,"Nele hat gesagt, dass ihre Tochter das Loch gebohrt hat.","Nele hat gesagt, dass ihre Tochter das Loch gebohrt ist.",accept,*,17:40:29,17:40:43,13575,77
444,f16,control,related,,,,EO_art,accept,below,"Kira hat gehört, dass die Route eine Bergsteigerin frustriert hat.","Kira hat gehört, dass die Route einem Bergsteigerin frustriert hat.",accept,*,17:40:43,17:40:51,8671,78
444,f45,filler,related,,,,refl_ES,accept,below,"Nadja hat gehört, dass sich ihre Mutter über das Geschenk gefreut hat.","Nadja hat gehört, dass ihre Mutter über das Geschenk sich gefreut hat.",accept,?,17:40:51,17:40:57,5242,79
444,f26,control,unrelated,,,,pers_pron,accept,below,"Eva hat erzählt, dass sie ihn gestern getroffen hat.","Eva hat erzählt, dass ihn sie gestern getroffen hat.",accept,*,17:40:57,17:41:06,8923,80
444,f65,filler,unrelated,,,,def,accept,above,"Julia hat gesagt, dass dem Kind ein Spielzeug gegeben wurde.","Julia hat gesagt, dass ein Spielzeug dem Kind gegeben wurde.",accept,?,17:41:06,17:41:11,5928,81
443,f28,calibration,related,,,,EO_perf_aux,accept,above,"Leon hat erwähnt, dass seiner Mutter die Entlassung zugesetzt hat.","Leon hat erwähnt, dass seiner Mutter die Entlassung zugesetzt ist.",accept,*,17:30:41,17:30:58,17459,0
443,f31,calibration,unrelated,,,,def,accept,above,"Sarah hat gehört, dass dem Nachbarn ein Paket gegeben wurde.","Sarah hat gehört, dass ein Paket dem Nachbarn gegeben wurde.",accept,?,17:30:58,17:31:06,7723,1
443,f29,calibration,related,,,,refl_ES,accept,above,"Julia hat erzählt, dass sich ihr Bruder für sein Verhalten geschämt hat.","Julia hat erzählt, dass ihr Bruder für sein Verhalten sich geschämt hat.",accept,?,17:31:06,17:31:12,6650,2
443,f32,calibration,unrelated,,,,v2,accept,above,"Jonas hat mitbekommen, dass gestern ein Lehrer verprügelt wurde.","Jonas hat mitbekommen, dass gestern wurde ein Lehrer verprügelt.",accept,*,17:31:12,17:31:18,6058,3
443,f30,calibration,related,,,,def,accept,above,"Kira hat gesagt, dass den Stadtwerken ein hoher Betrag überwiesen wurde.","Kira hat gesagt, dass ein hoher Betrag den Stadtwerken überwiesen wurde.",accept,?,17:31:18,17:31:26,7491,4
443,f27,calibration,related,,,,EO_perf_aux,accept,below,"Marek hat berichtet, dass der Film einen Kritiker gelangweilt hat.","Marek hat berichtet, dass der Film einen Kritiker gelangweilt ist.",accept,*,17:31:26,17:31:34,8389,5
443,t01,test,,acc,EO,interessieren,test,SubjObj,below,"Jonas hat erzählt, dass ein Piratenfilm einen Besucher interessiert hat.","Jonas hat erzählt, dass einen Besucher ein Piratenfilm interessiert hat.",SubjObj,ObjSubj,17:31:34,17:31:42,7333,6
443,f49,filler,related,,,,BenO_acc,SubjObj,above,"Eva hat erzählt, dass ein Warnstreik einen Bürger eingeschränkt hat.","Eva hat erzählt, dass einen Bürger ein Warnstreik eingeschränkt hat.",SubjObj,ObjSubj,17:31:42,17:31:49,7806,7
443,f66,filler,unrelated,,,,Action_perf_aux,accept,below,"Nele hat gesagt, dass ihre Tochter das Loch gebohrt hat.","Nele hat gesagt, dass ihre Tochter das Loch gebohrt ist.",accept,*,17:31:49,17:31:55,5098,8
443,f59,filler,unrelated,,,,pers_pron,accept_SO,below,"Ali hat erzählt, dass er ihnen ein Eis spendiert hat.","Ali hat erzählt, dass ihnen er ein Eis spendiert hat.",accept_SO,*_OS,17:31:55,17:32:00,4978,9
443,f63,filler,unrelated,,,,def,accept,below,"Anna hat gehört, dass dem Mann ein Bild gezeigt wurde.","Anna hat gehört, dass ein Bild dem Mann gezeigt wurde.",accept,?,17:32:00,17:32:04,4197,10
443,f46,filler,related,,,,refl_ES,accept,above,"Anna hat erzählt, dass sich eine Geschäftspartnerin über die hiesigen Gepflogenheiten gewundert hat.","Anna hat erzählt, dass eine Geschäftspartnerin über die hiesigen Gepflogenheiten sich gewundert hat.",accept,?,17:32:04,17:32:12,8133,11
443,t08,test,,acc,EO,verärgern,test,SubjObj,above,"Anna hat gesagt, dass ein Verfahren einen Richter verärgert hat.","Anna hat gesagt, dass einen Richter ein Verfahren verärgert hat.",SubjObj,ObjSubj,17:32:12,17:32:21,9365,12
443,f60,filler,unrelated,,,,pers_pron,accept_SO,below,"Kira hat gehört, dass sie es ihm endlich zugeschickt haben.","Kira hat gehört, dass es sie ihm endlich zugeschickt haben.",accept_SO,*_OS,17:32:21,17:32:28,7154,13
443,t07,test,,acc,EO,nerven,test,SubjObj,below,"Nele hat berichtet, dass eine Karikatur einen Politiker genervt hat.","Nele hat berichtet, dass einen Politiker eine Karikatur genervt hat.",SubjObj,ObjSubj,17:32:28,17:32:35,6502,14
443,f42,filler,related,,,,Unacc_dat,ObjSubj,above,"Sarah hat gehört, dass eine Zutat einem Bäcker ausgegangen ist.","Sarah hat gehört, dass einem Bäcker eine Zutat ausgegangen ist.",SubjObj,ObjSubj,17:32:35,17:32:41,6014,15
443,t12,test,,dat,EO,gefallen,test,ObjSubj,below,"Ali hat gesagt, dass ein Selbstporträt einem Maler gefallen hat.","Ali hat gesagt, dass einem Maler ein Selbstporträt gefallen hat.",SubjObj,ObjSubj,17:32:41,17:32:47,6255,16
443,f61,filler,unrelated,,,,pers_pron,accept_SO,below,"Selma hat gesehen, dass er es in den Briefkasten geworfen hat.","Selma hat gesehen, dass es er in den Briefkasten geworfen hat.",accept_SO,*_OS,17:32:47,17:32:54,6792,17
443,f01,attention,related,,,,EO_perf_aux,accept,below,"Sarah hat erzählt, dass das Kompliment einem Studenten geschmeichelt hat.","Sarah hat erzählt, dass das Kompliment einem Studenten geschmeichelt ist.",accept,*,17:32:54,17:33:02,8262,18
443,f50,filler,related,,,,BenO_acc,SubjObj,above,"Sarah hat gehört, dass ein Fehler einen Turner begünstigt hat.","Sarah hat gehört, dass einen Turner ein Fehler begünstigt hat.",SubjObj,ObjSubj,17:33:02,17:33:15,12433,19
443,f64,filler,unrelated,,,,def,accept,below,"Leon hat erzählt, dass dem Hausmeister eine Torte geschenkt wurde.","Leon hat erzählt, dass eine Torte dem Hausmeister geschenkt wurde.",accept,?,17:33:15,17:33:22,7774,20
443,f04,attention,related,,,,EO_perf_aux,accept,above,"Tina hat erzählt, dass eine Beleidigung einem Künstler leidgetan hat.","Tina hat erzählt, dass eine Beleidigung einem Künstler leidgetan ist.",accept,*,17:33:22,17:33:29,6982,21
443,t10,test,,dat,EO,behagen,test,ObjSubj,above,"David hat gehört, dass eine Aufgabe einem Kletterer behagt hat.","David hat gehört, dass einem Kletterer eine Aufgabe behagt hat.",SubjObj,ObjSubj,17:33:29,17:33:40,10071,22
443,f37,filler,related,,,,BenO_dat,ObjSubj,above,"Julia hat erzählt, dass ein Medikament einem Patienten geholfen hat.","Julia hat erzählt, dass einem Patienten ein Medikament geholfen hat.",SubjObj,ObjSubj,17:33:40,17:33:50,10843,23
443,f34,filler,related,,,,BenO_acc,SubjObj,below,"David hat gehört, dass ein Bremsassistent einen Autofahrer unterstützt hat.","David hat gehört, dass einen Autofahrer ein Bremsassistent unterstützt hat.",SubjObj,ObjSubj,17:33:50,17:33:57,6478,24
443,t04,test,,acc,EO,verblüffen,test,SubjObj,below,"Marek hat berichtet, dass ein Resultat einen Forscher verblüfft hat.","Marek hat berichtet, dass einen Forscher ein Resultat verblüfft hat.",SubjObj,ObjSubj,17:33:57,17:34:01,4640,25
443,f53,filler,related,,,,BenO_acc,ObjSubj,below,"Nele hat berichtet, dass ein Zufall einen Mann gerettet hat.","Nele hat berichtet, dass einen Mann ein Zufall gerettet hat.",SubjObj,ObjSubj,17:34:01,17:34:09,7484,26
443,t14,test,,dat,EO,missfallen,test,ObjSubj,below,"Sarah hat gehört, dass eine Aussage einem General missfallen hat.","Sarah hat gehört, dass einem General eine Aussage missfallen hat.",SubjObj,ObjSubj,17:34:09,17:34:17,7731,27
443,f47,filler,related,,,,refl_ES,accept,above,"Thorsten hat berichtet, dass sich die Kinder für französischen Rap interessieren.","Thorsten hat berichtet, dass die Kinder für französischen Rap sich interessieren.",accept,?,17:34:17,17:34:24,6906,28
443,t03,test,,acc,EO,ärgern,test,SubjObj,above,"Leon hat gesagt, dass ein Artikel einen Leser geärgert hat.","Leon hat gesagt, dass einen Leser ein Artikel geärgert hat.",SubjObj,ObjSubj,17:34:24,17:34:29,5667,29
443,f39,filler,related,,,,BenO_dat,ObjSubj,below,"Leon hat berichtet, dass eine Erkenntnis einem Bekannten genützt hat.","Leon hat berichtet, dass einem Bekannten eine Erkenntnis genützt hat.",SubjObj,ObjSubj,17:34:29,17:34:40,10272,30
443,f58,filler,unrelated,,,,pers_pron,accept_SO,below,"Jonas hat erzählt, dass er es vorbereitet hat.","Jonas hat erzählt, dass es er vorbereitet hat.",accept_SO,*_OS,17:34:40,17:34:46,6522,31
443,f24,control,unrelated,,,,pers_pron,accept,above,"Sarah hat erzählt, dass er ihr ein Handtuch gegeben hat.","Sarah hat erzählt, dass ihr er ein Handtuch gegeben hat.",accept,*,17:34:46,17:34:55,9366,32
443,f35,filler,related,,,,BenO_acc,SubjObj,below,"Leon hat gesagt, dass ein Bilanzskandal einen Aktionär geschädigt hat.","Leon hat gesagt, dass einen Aktionär ein Bilanzskandal geschädigt hat.",SubjObj,ObjSubj,17:34:55,17:35:02,6725,33
443,f19,control,unrelated,,,,article_count,accept,below,"Nora hat gehört, dass sich ihr Chef in eine Beraterin verliebt hat.","Nora hat gehört, dass sich ihr Chef in Beraterin verliebt hat.",accept,*,17:35:02,17:35:12,9627,34
443,f07,attention,unrelated,,,,article_count,accept,below,"Julia hat angedeutet, dass ihr Chef einen älteren Herrn übers Ohr gehauen hat.","Julia hat angedeutet, dass ihr Chef älteren Herrn übers Ohr gehauen hat.",accept,*,17:35:12,17:35:19,6944,35
443,f26,control,unrelated,,,,pers_pron,accept,below,"Eva hat erzählt, dass sie ihn gestern getroffen hat.","Eva hat erzählt, dass ihn sie gestern getroffen hat.",accept,*,17:35:19,17:35:23,4542,36
443,f54,filler,related,,,,BenO_acc,SubjObj,above,"Anna hat gesagt, dass ein Sicherheitsgurt einen Autofahrer geschützt hat.","Anna hat gesagt, dass einen Autofahrer ein Sicherheitsgurt geschützt hat.",SubjObj,ObjSubj,17:35:23,17:35:30,6801,37
443,f23,control,unrelated,,,,v2,accept,above,"Kira hat gemeint, dass ein Mitschüler gestern geschlafen hat.","Kira hat gemeint, dass ein Mitschüler hat gestern geschlafen.",accept,*,17:35:30,17:35:36,6118,38
443,f40,filler,related,,,,BenO_dat,ObjSubj,below,"Ali hat gesagt, dass ein Grenzwall einem König gedient hat.","Ali hat gesagt, dass einem König ein Grenzwall gedient hat.",SubjObj,ObjSubj,17:35:36,17:35:42,5346,39
443,f21,control,unrelated,,,,v2,accept,above,"Maryam hat erzählt, dass sie einem Bedürftigen Geld zukommen lässt.","Maryam hat erzählt, dass sie lässt einem Bedürftigen Geld zukommen.",accept,*,17:35:42,17:35:48,6831,40
443,f62,filler,related,,,,BenO_dat,ObjSubj,below,"Sarah hat gehört, dass eine App einem Nutzer assistiert hat.","Sarah hat gehört, dass einem Nutzer eine App assistiert hat.",SubjObj,ObjSubj,17:35:48,17:35:54,5525,41
443,f08,attention,unrelated,,,,weather_es,accept,above,"Marek hat erzählt, dass es in Österreich geschneit hat.","Marek hat erzählt, dass in Österreich geschneit hat.",accept,*,17:35:54,17:35:59,5330,42
443,t02,test,,acc,EO,anwidern,test,SubjObj,above,"David hat gehört, dass ein Spektakel einen Anwalt angewidert hat.","David hat gehört, dass einen Anwalt ein Spektakel angewidert hat.",SubjObj,ObjSubj,17:35:59,17:36:09,9747,43
443,f52,filler,related,,,,BenO_dat,ObjSubj,below,"Julia hat erzählt, dass eine Niederlage einem Politiker angehaftet hat.","Julia hat erzählt, dass einem Politiker eine Niederlage angehaftet hat.",SubjObj,ObjSubj,17:36:09,17:36:15,5908,44
443,f22,control,unrelated,,,,v2,accept,below,"Maurice hat behauptet, dass er einem Schauspieler ähnelt.","Maurice hat behauptet, dass er ähnelt einem Schauspieler.",accept,*,17:36:15,17:36:19,3845,45
443,f51,filler,related,,,,BenO_dat,ObjSubj,below,"Selma hat erzählt, dass eine Haftstrafe einem Erpresser gedroht hat.","Selma hat erzählt, dass einem Erpresser eine Haftstrafe gedroht hat.",SubjObj,ObjSubj,17:36:19,17:36:25,6177,46
443,f16,control,related,,,,EO_art,accept,below,"Kira hat gehört, dass die Route eine Bergsteigerin frustriert hat.","Kira hat gehört, dass die Route einem Bergsteigerin frustriert hat.",accept,*,17:36:25,17:36:34,9035,47
443,f38,filler,related,,,,BenO_dat,ObjSubj,below,"David hat gehört, dass eine Affäre einem Politiker geschadet hat.","David hat gehört, dass einem Politiker eine Affäre geschadet hat.",SubjObj,ObjSubj,17:36:34,17:36:39,4931,48
443,t09,test,,dat,EO,auffallen,test,ObjSubj,below,"Julia hat erzählt, dass eine Entwicklung einem Besucher aufgefallen ist.","Julia hat erzählt, dass einem Besucher eine Entwicklung aufgefallen ist.",SubjObj,ObjSubj,17:36:39,17:36:44,5496,49
443,f43,filler,related,,,,Unacc_dat,ObjSubj,below,"Anna hat gesagt, dass ein Joghurt einem Mitbewohner verschimmelt ist.","Anna hat gesagt, dass einem Mitbewohner ein Joghurt verschimmelt ist.",SubjObj,ObjSubj,17:36:44,17:36:50,5344,50
443,f14,control,related,,,,EO_cong,accept,above,"Marek hat gehört, dass ein Kompliment einen Mitspieler erheitert hat.","Marek hat gehört, dass ein Kompliment einen Mitspieler erheitert haben.",accept,*,17:36:50,17:36:56,5923,51
443,f65,filler,unrelated,,,,def,accept,below,"Julia hat gesagt, dass dem Kind ein Spielzeug gegeben wurde.","Julia hat gesagt, dass ein Spielzeug dem Kind gegeben wurde.",accept,?,17:36:56,17:37:00,4160,52
443,t16,test,,dat,EO,widerstreben,test,ObjSubj,below,"Anna hat gesagt, dass ein Ritual einem Priester widerstrebt hat.","Anna hat gesagt, dass einem Priester ein Ritual widerstrebt hat.",SubjObj,ObjSubj,17:37:00,17:37:04,4257,53
443,f33,filler,related,,,,BenO_acc,SubjObj,below,"Jonas hat erzählt, dass ein Zwischenfall einen Beamten beeinträchtigt hat.","Jonas hat erzählt, dass einen Beamten ein Zwischenfall beeinträchtigt hat.",SubjObj,ObjSubj,17:37:04,17:37:10,5563,54
443,f20,control,unrelated,,,,article_count,accept,above,"Marek hat mitbekommen, dass sich eine Kollegin abfällig über eine Verwandte geäußert hat.","Marek hat mitbekommen, dass sich Kollegin abfällig über eine Verwandte geäußert hat.",accept,*,17:37:10,17:37:18,8563,55
443,f44,filler,related,,,,Unacc_dat,ObjSubj,below,"Leon hat berichtet, dass ein Tank einem Nachbarn übergelaufen ist.","Leon hat berichtet, dass einem Nachbarn ein Tank übergelaufen ist.",SubjObj,ObjSubj,17:37:18,17:37:24,6066,56
443,f18,control,related,,,,EO_art,accept,above,"Ali hat berichtet, dass diese Enthüllung einen Journalisten schockiert hat.","Ali hat berichtet, dass diese Enthüllung einer Journalisten schockiert hat.",accept,*,17:37:24,17:37:31,6515,57
443,f45,filler,related,,,,refl_ES,accept,below,"Nadja hat gehört, dass sich ihre Mutter über das Geschenk gefreut hat.","Nadja hat gehört, dass ihre Mutter über das Geschenk sich gefreut hat.",accept,?,17:37:31,17:37:35,4551,58
443,f11,control,related,,,,EO_prep,accept,above,"Nele hat berichtet, dass sich die Chefin über das Geschenk gefreut hat.","Nele hat berichtet, dass sich die Chefin um das Geschenk gefreut hat.",accept,*,17:37:35,17:37:42,6447,59
443,f03,attention,related,,,,EO_perf_aux,accept,above,"Ali hat mitbekommen, dass die Verletzung einen Mitspieler schockiert hat.","Ali hat mitbekommen, dass die Verletzung einen Mitspieler schockiert ist.",accept,*,17:37:42,17:37:49,6733,60
443,f25,control,unrelated,,,,pers_pron,accept,below,"Simon hat gehört, dass sie ihm etwas zugerufen hat.","Simon hat gehört, dass ihm sie etwas zugerufen hat.",accept,*,17:37:49,17:37:53,4654,61
443,f55,filler,related,,,,BenO_dat,ObjSubj,below,"Nele hat berichtet, dass ein Denkmal einem Staatsmann gegolten hat.","Nele hat berichtet, dass einem Staatsmann ein Denkmal gegolten hat.",SubjObj,ObjSubj,17:37:53,17:38:02,8886,62
443,t13,test,,dat,EO,imponieren,test,ObjSubj,below,"Selma hat erzählt, dass ein Angebot einem Kunden imponiert hat.","Selma hat erzählt, dass einem Kunden ein Angebot imponiert hat.",SubjObj,ObjSubj,17:38:02,17:38:10,8232,63
443,f56,filler,unrelated,,,,weather_es,accept,above,"Nadja hat gesagt, dass es gestern gehagelt hat.","Nadja hat gesagt, dass gestern gehagelt hat.",accept,*,17:38:10,17:38:15,4626,64
443,f17,control,related,,,,EO_art,accept,below,"Leon hat erzählt, dass das bekannte Problem den Kanzlerkandidaten bedrückt hat.","Leon hat erzählt, dass die bekannte Problem den Kanzlerkandidaten bedrückt hat.",accept,*,17:38:15,17:38:24,9028,65
443,f06,attention,unrelated,,,,article_count,accept,below,"Maurice hat gesagt, dass der Mond aufgegangen ist.","Maurice hat gesagt, dass Mond aufgegangen ist.",accept,*,17:38:24,17:38:28,3943,66
443,f12,control,related,,,,EO_prep,accept,above,"David hat erzählt, dass sich der Trainer über sein Missgeschick amüsiert hat.","David hat erzählt, dass sich der Trainer um sein Missgeschick amüsiert hat.",accept,*,17:38:28,17:38:34,6492,67
443,f48,filler,related,,,,refl_ES,accept,above,"David hat mitbekommen, dass sich der Betreuer wieder erschreckt hat.","David hat mitbekommen, dass der Betreuer wieder sich erschreckt hat.",accept,?,17:38:34,17:38:41,6957,68
443,f10,attention,unrelated,,,,weather_es,accept,below,"Maurice hat gesagt, dass es in Paderborn gestern gestürmt hat.","Maurice hat gesagt, dass in Paderborn gestern gestürmt hat.",accept,*,17:38:41,17:38:46,4699,69
443,f13,control,related,,,,EO_cong,accept,above,"Ali hat mitbekommen, dass die Behandlung den Patienten aufgewühlt hat.","Ali hat mitbekommen, dass die Behandlung den Patienten aufgewühlt haben.",accept,*,17:38:46,17:38:51,4828,70
443,f41,filler,related,,,,Unacc_dat,ObjSubj,below,"David hat erzählt, dass ein Pullover einem Freund eingelaufen ist.","David hat erzählt, dass einem Freund ein Pullover eingelaufen ist.",SubjObj,ObjSubj,17:38:51,17:38:55,4152,71
443,t11,test,,dat,EO,einleuchten,test,ObjSubj,below,"Leon hat berichtet, dass ein Vorgehen einem Nachbarn eingeleuchtet hat.","Leon hat berichtet, dass einem Nachbarn ein Vorgehen eingeleuchtet hat.",SubjObj,ObjSubj,17:38:55,17:39:02,7153,72
443,f09,attention,unrelated,,,,weather_es,accept,below,"Anna hat gehört, dass es in der Atacama-Wüste geregnet hat.","Anna hat gehört, dass in der Atacama-Wüste geregnet hat.",accept,*,17:39:02,17:39:09,6417,73
443,t15,test,,dat,EO,nahegehen,test,ObjSubj,below,"Nele hat berichtet, dass ein Missgeschick einem Kollegen nahegegangen ist.","Nele hat berichtet, dass einem Kollegen ein Missgeschick nahegegangen ist.",SubjObj,ObjSubj,17:39:09,17:39:14,5166,74
443,f02,attention,related,,,,EO_perf_aux,accept,below,"Eva hat gehört, dass dieser Kommentar einer Mitspielerin zugesetzt hat.","Eva hat gehört, dass dieser Kommentar einer Mitspielerin zugesetzt ist.",accept,*,17:39:14,17:39:18,4011,75
443,f15,control,related,,,,EO_art,accept,below,"Maryam hat gesagt, dass der Mantel die Kollegin begeistert hat.","Maryam hat gesagt, dass der Mantel den Kollegin begeistert hat.",accept,*,17:39:18,17:39:22,4589,76
443,f36,filler,related,,,,BenO_acc,SubjObj,below,"Marek hat berichtet, dass ein Schneesturm einen Springer behindert hat.","Marek hat berichtet, dass einen Springer ein Schneesturm behindert hat.",SubjObj,ObjSubj,17:39:22,17:39:28,5908,77
443,t05,test,,acc,EO,bezaubern,test,SubjObj,below,"Eva hat erzählt, dass ein Holzspielzeug einen Jungen bezaubert hat.","Eva hat erzählt, dass einen Jungen ein Holzspielzeug bezaubert hat.",SubjObj,ObjSubj,17:39:28,17:39:35,6238,78
443,f57,filler,unrelated,,,,pers_pron,accept_SO,below,"David hat erzählt, dass er es gehört hat.","David hat erzählt, dass es er gehört hat.",accept_SO,*_OS,17:39:35,17:39:39,4286,79
443,t06,test,,acc,EO,ängstigen,test,SubjObj,below,"Sarah hat gehört, dass eine Livesendung einen Zuschauer geängstigt hat.","Sarah hat gehört, dass einen Zuschauer eine Livesendung geängstigt hat.",SubjObj,ObjSubj,17:39:39,17:39:44,5548,80
443,f05,attention,related,,,,EO_perf_aux,accept,above,"Nora hat mitbekommen, dass der Fleck einen Bekannten gestört hat.","Nora hat mitbekommen, dass der Fleck einen Bekannten gestört ist.",accept,*,17:39:44,17:39:52,7670,81
441,f30,calibration,related,,,,def,accept,below,"Kira hat gesagt, dass den Stadtwerken ein hoher Betrag überwiesen wurde.","Kira hat gesagt, dass ein hoher Betrag den Stadtwerken überwiesen wurde.",accept,?,17:28:26,17:28:37,10385,0
441,f29,calibration,related,,,,refl_ES,accept,below,"Julia hat erzählt, dass sich ihr Bruder für sein Verhalten geschämt hat.","Julia hat erzählt, dass ihr Bruder für sein Verhalten sich geschämt hat.",accept,?,17:28:37,17:28:43,6740,1
441,f31,calibration,unrelated,,,,def,?,below,"Sarah hat gehört, dass dem Nachbarn ein Paket gegeben wurde.","Sarah hat gehört, dass ein Paket dem Nachbarn gegeben wurde.",accept,?,17:28:43,17:28:55,11567,2
441,f28,calibration,related,,,,EO_perf_aux,accept,above,"Leon hat erwähnt, dass seiner Mutter die Entlassung zugesetzt hat.","Leon hat erwähnt, dass seiner Mutter die Entlassung zugesetzt ist.",accept,*,17:28:55,17:29:04,8764,3
441,f32,calibration,unrelated,,,,v2,accept,above,"Jonas hat mitbekommen, dass gestern ein Lehrer verprügelt wurde.","Jonas hat mitbekommen, dass gestern wurde ein Lehrer verprügelt.",accept,*,17:29:04,17:29:10,6408,4
441,f27,calibration,related,,,,EO_perf_aux,accept,above,"Marek hat berichtet, dass der Film einen Kritiker gelangweilt hat.","Marek hat berichtet, dass der Film einen Kritiker gelangweilt ist.",accept,*,17:29:10,17:29:17,6954,5
441,f39,filler,related,,,,BenO_dat,ObjSubj,below,"Leon hat berichtet, dass eine Erkenntnis einem Bekannten genützt hat.","Leon hat berichtet, dass einem Bekannten eine Erkenntnis genützt hat.",SubjObj,ObjSubj,17:29:17,17:29:29,12342,6
441,t11,test,,dat,EO,einleuchten,test,ObjSubj,above,"Leon hat berichtet, dass ein Vorgehen einem Nachbarn eingeleuchtet hat.","Leon hat berichtet, dass einem Nachbarn ein Vorgehen eingeleuchtet hat.",SubjObj,ObjSubj,17:29:29,17:29:37,7933,7
441,f60,filler,unrelated,,,,pers_pron,accept_SO,above,"Kira hat gehört, dass sie es ihm endlich zugeschickt haben.","Kira hat gehört, dass es sie ihm endlich zugeschickt haben.",accept_SO,*_OS,17:29:37,17:29:49,12002,8
441,t06,test,,acc,EO,ängstigen,test,SubjObj,above,"Sarah hat gehört, dass eine Livesendung einen Zuschauer geängstigt hat.","Sarah hat gehört, dass einen Zuschauer eine Livesendung geängstigt hat.",SubjObj,ObjSubj,17:29:49,17:29:57,7327,9
441,f37,filler,related,,,,BenO_dat,SubjObj,above,"Julia hat erzählt, dass ein Medikament einem Patienten geholfen hat.","Julia hat erzählt, dass einem Patienten ein Medikament geholfen hat.",SubjObj,ObjSubj,17:29:57,17:30:03,6431,10
441,f61,filler,unrelated,,,,pers_pron,accept_SO,below,"Selma hat gesehen, dass er es in den Briefkasten geworfen hat.","Selma hat gesehen, dass es er in den Briefkasten geworfen hat.",accept_SO,*_OS,17:30:03,17:30:09,5448,11
441,f41,filler,related,,,,Unacc_dat,ObjSubj,below,"David hat erzählt, dass ein Pullover einem Freund eingelaufen ist.","David hat erzählt, dass einem Freund ein Pullover eingelaufen ist.",SubjObj,ObjSubj,17:30:09,17:30:17,8280,12
441,f54,filler,related,,,,BenO_acc,SubjObj,above,"Anna hat gesagt, dass ein Sicherheitsgurt einen Autofahrer geschützt hat.","Anna hat gesagt, dass einen Autofahrer ein Sicherheitsgurt geschützt hat.",SubjObj,ObjSubj,17:30:17,17:30:26,9409,13
441,t09,test,,dat,EO,auffallen,test,ObjSubj,above,"Julia hat erzählt, dass eine Entwicklung einem Besucher aufgefallen ist.","Julia hat erzählt, dass einem Besucher eine Entwicklung aufgefallen ist.",SubjObj,ObjSubj,17:30:26,17:30:32,5828,14
441,f42,filler,related,,,,Unacc_dat,ObjSubj,above,"Sarah hat gehört, dass eine Zutat einem Bäcker ausgegangen ist.","Sarah hat gehört, dass einem Bäcker eine Zutat ausgegangen ist.",SubjObj,ObjSubj,17:30:32,17:30:39,6484,15
441,f01,attention,related,,,,EO_perf_aux,accept,above,"Sarah hat erzählt, dass das Kompliment einem Studenten geschmeichelt hat.","Sarah hat erzählt, dass das Kompliment einem Studenten geschmeichelt ist.",accept,*,17:30:39,17:30:46,7364,16
441,f57,filler,unrelated,,,,pers_pron,accept_SO,below,"David hat erzählt, dass er es gehört hat.","David hat erzählt, dass es er gehört hat.",accept_SO,*_OS,17:30:46,17:30:51,5272,17
441,t01,test,,acc,EO,interessieren,test,ObjSubj,below,"Jonas hat erzählt, dass ein Piratenfilm einen Besucher interessiert hat.","Jonas hat erzählt, dass einen Besucher ein Piratenfilm interessiert hat.",SubjObj,ObjSubj,17:30:51,17:31:01,9442,18
441,f08,attention,unrelated,,,,weather_es,accept,below,"Marek hat erzählt, dass es in Österreich geschneit hat.","Marek hat erzählt, dass in Österreich geschneit hat.",accept,*,17:31:01,17:31:05,4658,19
441,t14,test,,dat,EO,missfallen,test,SubjObj,below,"Sarah hat gehört, dass eine Aussage einem General missfallen hat.","Sarah hat gehört, dass einem General eine Aussage missfallen hat.",SubjObj,ObjSubj,17:31:05,17:31:16,10930,20
441,f03,attention,related,,,,EO_perf_aux,accept,below,"Ali hat mitbekommen, dass die Verletzung einen Mitspieler schockiert hat.","Ali hat mitbekommen, dass die Verletzung einen Mitspieler schockiert ist.",accept,*,17:31:16,17:31:22,5718,21
441,f44,filler,related,,,,Unacc_dat,ObjSubj,below,"Leon hat berichtet, dass ein Tank einem Nachbarn übergelaufen ist.","Leon hat berichtet, dass einem Nachbarn ein Tank übergelaufen ist.",SubjObj,ObjSubj,17:31:22,17:31:29,6608,22
441,f55,filler,related,,,,BenO_dat,SubjObj,above,"Nele hat berichtet, dass ein Denkmal einem Staatsmann gegolten hat.","Nele hat berichtet, dass einem Staatsmann ein Denkmal gegolten hat.",SubjObj,ObjSubj,17:31:29,17:31:42,12973,23
441,f07,attention,unrelated,,,,article_count,accept,above,"Julia hat angedeutet, dass ihr Chef einen älteren Herrn übers Ohr gehauen hat.","Julia hat angedeutet, dass ihr Chef älteren Herrn übers Ohr gehauen hat.",accept,*,17:31:42,17:31:51,9283,24
441,t13,test,,dat,EO,imponieren,test,SubjObj,below,"Selma hat erzählt, dass ein Angebot einem Kunden imponiert hat.","Selma hat erzählt, dass einem Kunden ein Angebot imponiert hat.",SubjObj,ObjSubj,17:31:51,17:31:58,7231,25
441,f52,filler,related,,,,BenO_dat,ObjSubj,above,"Julia hat erzählt, dass eine Niederlage einem Politiker angehaftet hat.","Julia hat erzählt, dass einem Politiker eine Niederlage angehaftet hat.",SubjObj,ObjSubj,17:31:58,17:32:06,7718,26
441,f51,filler,related,,,,BenO_dat,ObjSubj,above,"Selma hat erzählt, dass eine Haftstrafe einem Erpresser gedroht hat.","Selma hat erzählt, dass einem Erpresser eine Haftstrafe gedroht hat.",SubjObj,ObjSubj,17:32:06,17:32:18,12136,27
441,f25,control,unrelated,,,,pers_pron,accept,below,"Simon hat gehört, dass sie ihm etwas zugerufen hat.","Simon hat gehört, dass ihm sie etwas zugerufen hat.",accept,*,17:32:18,17:32:22,4358,28
441,f05,attention,related,,,,EO_perf_aux,accept,below,"Nora hat mitbekommen, dass der Fleck einen Bekannten gestört hat.","Nora hat mitbekommen, dass der Fleck einen Bekannten gestört ist.",accept,*,17:32:22,17:32:32,9388,29
